"Time (s)","Gyroscope x (rad/s)","Gyroscope y (rad/s)","Gyroscope z (rad/s)","Absolute (rad/s)"
0.000000000E0,1.095528901E-1,1.336936355E-1,-5.458639562E-2,1.812608575E-1
2.406094000E-3,9.305953979E-2,1.263632476E-1,-5.947331339E-2,1.678237865E-1
4.811458000E-3,7.412273437E-2,1.141459569E-1,-6.374936551E-2,1.502912534E-1
7.215990000E-3,5.885111541E-2,1.104807779E-1,-6.924714893E-2,1.430546179E-1
9.621354000E-3,4.602295905E-2,1.129242256E-1,-7.474493235E-2,1.430272646E-1
1.202750000E-2,3.380566835E-2,1.220872030E-1,-8.024271578E-2,1.499566663E-1
1.443276000E-2,2.219923586E-2,1.226980612E-1,-8.390790224E-2,1.502935672E-1
1.683734400E-2,1.303626411E-2,1.318610311E-1,-8.940568566E-2,1.598457141E-1
1.924276000E-2,2.651564777E-3,1.398022771E-1,-9.184914827E-2,1.672960654E-1
2.164885400E-2,-4.067947157E-3,1.544630229E-1,-9.551433474E-2,1.816545122E-1
2.405421900E-2,-1.506351214E-2,1.624042690E-1,-9.917952120E-2,1.908890605E-1
2.645875000E-2,-2.666994184E-2,1.697346568E-1,-1.028447077E-1,2.002452831E-1
2.886411500E-2,-4.071982950E-2,1.770650148E-1,-1.077316254E-1,2.112255361E-1
3.127026000E-2,-5.538058281E-2,1.843954027E-1,-1.132294089E-1,2.233597379E-1
3.367562500E-2,-7.187393308E-2,1.886714697E-1,-1.193380579E-1,2.345300787E-1
3.608010400E-2,-9.019987285E-2,1.880605817E-1,-1.260575652E-1,2.437074254E-1
3.848552100E-2,-1.073040888E-1,1.837845445E-1,-1.309444904E-1,2.498747403E-1
4.089166700E-2,-1.286843419E-1,1.776759028E-1,-1.364422739E-1,2.583503056E-1
4.329692700E-2,-1.494537443E-1,1.740106940E-1,-1.413291842E-1,2.694254658E-1
4.570151000E-2,-1.677796841E-1,1.703455150E-1,-1.468269676E-1,2.805811385E-1
4.810692700E-2,-1.879382282E-1,1.691237986E-1,-1.529356241E-1,2.954876343E-1
5.051302100E-2,-2.087076306E-1,1.703455150E-1,-1.584333926E-1,3.125341733E-1
5.291838500E-2,-2.300878912E-1,1.727889776E-1,-1.639311761E-1,3.311644591E-1
5.532291700E-2,-2.502464354E-1,1.758432984E-1,-1.712615639E-1,3.505348304E-1
5.772828100E-2,-2.704049647E-1,1.764541566E-1,-1.816462576E-1,3.704730452E-1
6.013442700E-2,-2.881200314E-1,1.788976192E-1,-1.944744140E-1,3.909447638E-1
6.253979200E-2,-3.082785606E-1,1.801193655E-1,-2.097460330E-1,4.140918438E-1
6.494427100E-2,-3.272153735E-1,1.850062609E-1,-2.256285250E-1,4.384124183E-1
6.734968700E-2,-3.479847908E-1,1.892823279E-1,-2.433435917E-1,4.649057086E-1
6.975578100E-2,-3.650889993E-1,1.935583651E-1,-2.598369420E-1,4.881291371E-1
7.216114600E-2,-3.840258121E-1,1.966126859E-1,-2.751085460E-1,5.116806472E-1
7.456567700E-2,-4.023517370E-1,1.947801113E-1,-2.891584635E-1,5.323897342E-1
7.697104200E-2,-4.164016247E-1,1.929475069E-1,-3.019866049E-1,5.493768861E-1
7.937718700E-2,-4.316732585E-1,1.837845445E-1,-3.129821718E-1,5.639826245E-1
8.178255200E-2,-4.457231462E-1,1.776759028E-1,-3.215342760E-1,5.776003291E-1
8.418703100E-2,-4.579404294E-1,1.733998358E-1,-3.276429176E-1,5.891746952E-1
8.659244800E-2,-4.689359963E-1,1.679020524E-1,-3.319189847E-1,5.985501484E-1
8.899859400E-2,-4.768772423E-1,1.654585898E-1,-3.337515891E-1,6.051269060E-1
9.140385400E-2,-4.860402048E-1,1.642368734E-1,-3.313081264E-1,6.107158962E-1
9.380843700E-2,-4.952031672E-1,1.648477316E-1,-3.264212012E-1,6.155905717E-1
9.621385400E-2,-4.994792342E-1,1.605716944E-1,-3.190908134E-1,6.140698019E-1
9.861994800E-2,-5.037552714E-1,1.532413065E-1,-3.117604554E-1,6.119206264E-1
1.010253120E-1,-5.086421967E-1,1.373588145E-1,-3.013757467E-1,6.069692487E-1
1.034298440E-1,-5.116965175E-1,1.153676882E-1,-2.897693217E-1,5.992572814E-1
1.058352080E-1,-5.153617263E-1,8.726791292E-2,-2.799954712E-1,5.929678418E-1
1.082413540E-1,-5.184160471E-1,5.367035419E-2,-2.708325088E-1,5.873550482E-1
1.106467190E-1,-5.190268755E-1,1.885106415E-2,-2.604478002E-1,5.810140418E-1
1.130511980E-1,-5.190268755E-1,-1.596822403E-2,-2.518956959E-1,5.771441096E-1
1.154566150E-1,-5.196377635E-1,-5.506356806E-2,-2.470087856E-1,5.779868008E-1
1.178627080E-1,-5.190268755E-1,-9.232631326E-2,-2.439544648E-1,5.808845208E-1
1.202680730E-1,-5.171943307E-1,-1.247021481E-1,-2.445653230E-1,5.855363342E-1
1.226726040E-1,-5.141400099E-1,-1.528019309E-1,-2.470087856E-1,5.905097120E-1
1.250779690E-1,-5.086421967E-1,-1.741821766E-1,-2.531174123E-1,5.942429968E-1
1.274841150E-1,-5.013118386E-1,-1.882320642E-1,-2.622804046E-1,5.962682955E-1
1.298894790E-1,-4.939814508E-1,-2.004493773E-1,-2.714433670E-1,5.982299960E-1
1.322939580E-1,-4.848184884E-1,-2.096123397E-1,-2.830497921E-1,5.992524380E-1
1.346993750E-1,-4.744337797E-1,-2.181644440E-1,-2.983214259E-1,6.013973804E-1
1.371055210E-1,-4.622164965E-1,-2.242730856E-1,-3.129821718E-1,6.015815376E-1
1.395107810E-1,-4.487774670E-1,-2.285491526E-1,-3.282538056E-1,6.011542988E-1
1.419153650E-1,-4.377819002E-1,-2.261056900E-1,-3.453580141E-1,6.017050216E-1
1.443207810E-1,-4.243428707E-1,-1.980059147E-1,-3.636839390E-1,5.929074309E-1
1.467268750E-1,-4.102929831E-1,-1.234804168E-1,-3.807881474E-1,5.732253994E-1
1.491322400E-1,-3.986865580E-1,-8.637845516E-3,-3.972814977E-1,5.629015654E-1
1.515367710E-1,-3.889127076E-1,1.147568300E-1,-4.107205272E-1,5.771599220E-1
1.539421350E-1,-3.809714615E-1,2.088299990E-1,-4.180509150E-1,6.029227069E-1
1.563482810E-1,-3.705867827E-1,2.607534826E-1,-4.204943776E-1,6.181767254E-1
1.587535420E-1,-3.638672531E-1,2.558665574E-1,-4.180509150E-1,6.104372536E-1
1.611581250E-1,-3.553151488E-1,2.076082528E-1,-4.107205272E-1,5.814132722E-1
1.635635420E-1,-3.461521864E-1,1.324718893E-1,-4.009467065E-1,5.460113543E-1
1.659696350E-1,-3.369892240E-1,4.450738430E-2,-3.905619979E-1,5.177656985E-1
1.683750000E-1,-3.253827989E-1,-4.651146010E-2,-3.807881474E-1,5.030277278E-1
1.707795310E-1,-3.143872321E-1,-1.387520432E-1,-3.722360432E-1,5.066074743E-1
1.731848960E-1,-2.966721356E-1,-2.163318396E-1,-3.655165434E-1,5.180889541E-1
1.755910420E-1,-2.801787853E-1,-2.816943824E-1,-3.606296182E-1,5.365683538E-1
1.779964060E-1,-2.612420022E-1,-3.299526870E-1,-3.594079018E-1,5.534349097E-1
1.804008850E-1,-2.404725850E-1,-3.611068130E-1,-3.630730808E-1,5.657271926E-1
1.828063020E-1,-2.154271305E-1,-3.763784170E-1,-3.722360432E-1,5.715148583E-1
1.852124480E-1,-1.873273551E-1,-3.800435960E-1,-3.832316101E-1,5.713065200E-1
1.876177080E-1,-1.592275798E-1,-3.782110214E-1,-3.960597813E-1,5.703160083E-1
1.900222920E-1,-1.262408942E-1,-3.721023500E-1,-4.113313854E-1,5.688500952E-1
1.924277080E-1,-9.264333546E-2,-3.629393876E-1,-4.321008027E-1,5.718556551E-1
1.948338020E-1,-5.660231411E-2,-3.562198877E-1,-4.534810483E-1,5.794320423E-1
1.972391670E-1,-2.056129463E-2,-3.531655669E-1,-4.754721820E-1,5.926402622E-1
1.996436460E-1,1.364712976E-2,-3.543872833E-1,-5.005176067E-1,6.134284517E-1
2.020490620E-1,4.846642166E-2,-3.556090295E-1,-5.261739492E-1,6.369189907E-1
2.044552080E-1,8.328570426E-2,-3.611068130E-1,-5.493867993E-1,6.626918546E-1
2.068604690E-1,1.126072109E-1,-3.739349544E-1,-5.683236122E-1,6.895646904E-1
2.092650520E-1,1.431504488E-1,-3.885957003E-1,-5.866495371E-1,7.180921589E-1
2.116704690E-1,1.724719703E-1,-4.105868340E-1,-6.031428576E-1,7.497395784E-1
2.140765620E-1,1.987391412E-1,-4.423518181E-1,-6.196362376E-1,7.868427061E-1
2.164819270E-1,2.237845957E-1,-4.796145558E-1,-6.349078417E-1,8.265698004E-1
2.188864580E-1,2.463865876E-1,-5.180990100E-1,-6.501794457E-1,8.671022122E-1
2.212918230E-1,2.677668631E-1,-5.547508597E-1,-6.642293334E-1,9.058963609E-1
2.236979690E-1,2.897579968E-1,-5.791854858E-1,-6.776683927E-1,9.373633096E-1
2.261033330E-1,3.080839217E-1,-5.944570899E-1,-6.886639595E-1,9.604962174E-1
2.285078120E-1,3.312968016E-1,-5.920136571E-1,-6.947726011E-1,9.710544311E-1
2.309132290E-1,3.551205099E-1,-5.675790310E-1,-6.929399967E-1,9.635467669E-1
2.333193750E-1,3.838311434E-1,-5.126012564E-1,-6.758357882E-1,9.310426453E-1
2.357246350E-1,4.247590899E-1,-3.922609091E-1,-6.306318045E-1,8.555614403E-1
2.381292190E-1,4.730173945E-1,-2.138884068E-1,-5.603823662E-1,7.638861842E-1
2.405345830E-1,5.151670575E-1,-4.773318768E-2,-4.803591073E-1,7.059889704E-1
2.429407290E-1,5.505972505E-1,7.810494304E-2,-3.954489231E-1,6.823764102E-1
2.453460940E-1,5.811404586E-1,1.611825526E-1,-3.080952466E-1,6.772198526E-1
2.477505730E-1,6.019098759E-1,2.033322155E-1,-2.189090103E-1,6.719826213E-1
2.501559900E-1,6.159597635E-1,2.118843198E-1,-1.315553486E-1,6.645360825E-1
2.525621350E-1,6.196249127E-1,1.935583651E-1,-4.603429139E-2,6.507833965E-1
2.549673960E-1,6.104619503E-1,1.587390900E-1,3.337812424E-2,6.316454628E-1
2.573719790E-1,5.854164958E-1,1.147568300E-1,1.054601595E-1,6.058080957E-1
2.597773960E-1,5.499863625E-1,6.038986892E-2,1.738770157E-1,5.799699576E-1
2.621834900E-1,5.053932071E-1,4.801176488E-3,2.374069393E-1,5.583971704E-1
2.645888540E-1,4.467502236E-1,-5.139837787E-2,2.984934151E-1,5.397461204E-1
2.669933850E-1,3.734464645E-1,-9.660236537E-2,3.559146821E-1,5.248519218E-1
2.693987500E-1,2.928123176E-1,-9.904582798E-2,4.151685834E-1,5.176041750E-1
2.718048960E-1,2.079021186E-1,-5.872875452E-2,4.793093801E-1,5.257469347E-1
2.742102600E-1,1.168832704E-1,4.190310836E-3,5.465044975E-1,5.588796144E-1
2.766147400E-1,1.914491318E-2,7.749407738E-2,6.161431074E-1,6.212923535E-1
2.790201560E-1,-8.592382073E-2,1.471326649E-1,6.851708293E-1,7.060382351E-1
2.814263020E-1,-1.971011907E-1,2.045539320E-1,7.523659468E-1,8.042050163E-1
2.838315620E-1,-3.186632693E-1,2.350971699E-1,8.152849674E-1,9.063699778E-1
2.862361460E-1,-4.432796836E-1,2.430384159E-1,8.714845777E-1,1.007496858E0
2.886415100E-1,-5.752264857E-1,2.259342074E-1,9.209645987E-1,1.109102145E0
2.910476560E-1,-7.083949447E-1,1.874497235E-1,9.618925452E-1,1.209213821E0
2.934530210E-1,-8.470612764E-1,1.220872030E-1,9.918248653E-1,1.310013227E0
2.958575000E-1,-9.869492650E-1,3.351181746E-2,1.013815999E0,1.415279044E0
2.982629170E-1,-1.124393940E0,-5.811788887E-2,1.024811625E0,1.522457976E0
3.006690620E-1,-1.260005832E0,-1.332542598E-1,1.024811625E0,1.629604327E0
3.030743230E-1,-1.389509201E0,-1.674626768E-1,1.016870379E0,1.729972525E0
3.054789060E-1,-1.479917169E0,-2.879638225E-2,9.936574697E-1,1.782789731E0
3.078843230E-1,-1.473197699E0,4.275195599E-1,9.478426576E-1,1.803188880E0
3.102904170E-1,-1.459147811E0,8.734508157E-1,8.940865397E-1,1.921306691E0
3.126957810E-1,-1.511682153E0,1.044492960E0,8.580455184E-1,2.027903002E0
3.151003120E-1,-1.595981479E0,1.051823378E0,8.268914223E-1,2.082603832E0
3.175056770E-1,-1.677837372E0,1.023112655E0,7.798548341E-1,2.114254316E0
3.199118230E-1,-1.737702131E0,1.058542848E0,7.126597166E-1,2.155923359E0
3.223170830E-1,-1.767023563E0,1.176439762E0,6.283603907E-1,2.213869817E0
3.247216670E-1,-1.779851794E0,1.314495206E0,5.269568563E-1,2.274522716E0
3.271270830E-1,-1.784738660E0,1.428726912E0,4.139468372E-1,2.323339118E0
3.295331770E-1,-1.778019190E0,1.513637066E0,2.929956317E-1,2.353358419E0
3.319385420E-1,-1.752973676E0,1.575334430E0,1.702118218E-1,2.362957329E0
3.343430730E-1,-1.705937147E0,1.616873145E0,4.681714624E-2,2.350891780E0
3.367484370E-1,-1.644850612E0,1.630312204E0,-7.046888024E-2,2.316984523E0
3.391545830E-1,-1.574601173E0,1.617484093E0,-1.792027950E-1,2.264450769E0
3.415599480E-1,-1.493356228E0,1.581443071E0,-2.793846130E-1,2.192973044E0
3.439644270E-1,-1.403559089E0,1.535628200E0,-3.716251850E-1,2.113347430E0
3.463698440E-1,-1.305820704E0,1.484315515E0,-4.528701901E-1,2.028164605E0
3.487759900E-1,-1.202584624E0,1.428115964E0,-5.200653076E-1,1.938090016E0
3.511812500E-1,-1.096904993E0,1.368862152E0,-5.744322538E-1,1.845794292E0
3.535858330E-1,-9.912253022E-1,1.304110408E0,-6.141384244E-1,1.749399200E0
3.559912500E-1,-8.843240142E-1,1.236915350E0,-6.397947669E-1,1.649644170E0
3.583973440E-1,-7.737575173E-1,1.167276740E0,-6.550663710E-1,1.546074912E0
3.608027080E-1,-6.625801325E-1,1.090918660E0,-6.617859006E-1,1.437733123E0
3.632071870E-1,-5.501810312E-1,1.009673715E0,-6.568989754E-1,1.324256939E0
3.656126040E-1,-4.347275794E-1,9.210982919E-1,-6.428490877E-1,1.204435586E0
3.680187500E-1,-3.168306649E-1,8.325228691E-1,-6.251339912E-1,1.088241014E0
3.704240100E-1,-1.964903325E-1,7.433366179E-1,-6.019211411E-1,9.764562655E-1
3.728285940E-1,-7.126306742E-2,6.553721428E-1,-5.762648582E-1,8.755982282E-1
3.752340100E-1,5.640766025E-2,5.625206828E-1,-5.475541949E-1,7.870368092E-1
3.776401040E-1,1.859109849E-1,4.690583646E-1,-5.176218152E-1,7.228492148E-1
3.800454690E-1,3.178577721E-1,3.725417256E-1,-4.858568907E-1,6.898389804E-1
3.824500000E-1,4.485828280E-1,2.735816538E-1,-4.534810483E-1,6.940594615E-1
3.848553650E-1,5.799187422E-1,1.752324402E-1,-4.217160940E-1,7.381440372E-1
3.872615100E-1,7.088111639E-1,7.566148788E-2,-3.936163187E-1,8.142921670E-1
3.896667710E-1,8.352602124E-1,-2.940724790E-2,-3.685708642E-1,9.134379512E-1
3.920713540E-1,9.580439925E-1,-1.375302970E-1,-3.471905887E-1,1.028252974E0
3.944767710E-1,1.075330019E0,-2.480968237E-1,-3.300863802E-1,1.151887018E0
3.968828650E-1,1.188339949E0,-3.635502458E-1,-3.172582388E-1,1.282565166E0
3.992882290E-1,1.294019580E0,-4.875558019E-1,-3.105387092E-1,1.417262016E0
4.016927600E-1,1.395423055E0,-6.195025444E-1,-3.080952466E-1,1.557533815E0
4.040981250E-1,1.492550611E0,-7.557253838E-1,-3.117604554E-1,1.701770480E0
4.065042710E-1,1.585402012E0,-8.888939023E-1,-3.215342760E-1,1.845810445E0
4.089096350E-1,1.673977375E0,-1.017786384E0,-3.331407011E-1,1.987227240E0
4.113141150E-1,1.756444097E0,-1.143624425E0,-3.465797305E-1,2.124403493E0
4.137195310E-1,1.835856557E0,-1.263353944E0,-3.594079018E-1,2.257345017E0
4.161256770E-1,1.912214637E0,-1.376363993E0,-3.734577894E-1,2.385458735E0
4.185309370E-1,1.982464075E0,-1.485097885E0,-3.862859309E-1,2.506969557E0
4.209355210E-1,2.049048424E0,-1.585279703E0,-3.954489231E-1,2.620704301E0
4.233409370E-1,2.111967564E0,-1.679963708E0,-4.021684229E-1,2.728447267E0
4.257470310E-1,2.173053980E0,-1.766706467E0,-4.033901393E-1,2.829512139E0
4.281523960E-1,2.226809978E0,-1.849173188E0,-4.003358185E-1,2.922052862E0
4.305568750E-1,2.275679350E0,-1.929807425E0,-3.936163187E-1,3.009619080E0
4.329622920E-1,2.316607237E0,-2.006165504E0,-3.820098937E-1,3.088252043E0
4.353684370E-1,2.350815535E0,-2.075193405E0,-3.685708642E-1,3.157309904E0
4.377736980E-1,2.375250101E0,-2.142388344E0,-3.532992303E-1,3.218145616E0
4.401782810E-1,2.392965317E0,-2.204696655E0,-3.374167681E-1,3.271210850E0
4.425836980E-1,2.405182600E0,-2.262117863E0,-3.203125596E-1,3.317330357E0
4.449897920E-1,2.413123846E0,-2.318928242E0,-3.013757467E-1,3.360271154E0
4.473951560E-1,2.416789055E0,-2.369630098E0,-2.812172174E-1,3.396336153E0
4.497996870E-1,2.415567160E0,-2.410557985E0,-2.592260838E-1,3.422419125E0
4.522050520E-1,2.409458637E0,-2.442933798E0,-2.384566814E-1,3.439517125E0
4.546111980E-1,2.400295734E0,-2.455761909E0,-2.176872790E-1,3.440868193E0
4.570165620E-1,2.383802414E0,-2.457594633E0,-1.993613392E-1,3.429581647E0
4.594210420E-1,2.363032818E0,-2.447820663E0,-1.792027950E-1,3.407031514E0
4.618264580E-1,2.339209080E0,-2.435603380E0,-1.590442657E-1,3.380733356E0
4.642325520E-1,2.306222439E0,-2.418499231E0,-1.443835050E-1,3.344943507E0
4.666379170E-1,2.268348932E0,-2.398951530E0,-1.309444904E-1,3.304167336E0
4.690424480E-1,2.220090628E0,-2.376960516E0,-1.175054610E-1,3.254619981E0
4.714478120E-1,2.166945219E0,-2.353747606E0,-1.046773046E-1,3.201052439E0
4.738539580E-1,2.108913183E0,-2.326258659E0,-9.368173778E-2,3.141300755E0
4.762593230E-1,2.042939901E0,-2.296937227E0,-8.146444708E-2,3.075087076E0
4.786638020E-1,1.971468449E0,-2.264561415E0,-6.619282812E-2,3.003216232E0
4.810692190E-1,1.898775578E0,-2.223633528E0,-5.031034350E-2,2.924453093E0
4.834753650E-1,1.823639274E0,-2.173542500E0,-3.748218343E-2,2.837490460E0
4.858806250E-1,1.743615985E0,-2.116732121E0,-2.404315956E-2,2.742504266E0
4.882852080E-1,1.660538316E0,-2.056867361E0,-1.243672986E-2,2.643528988E0
4.906906250E-1,1.576238990E0,-1.991504669E0,-1.441164874E-3,2.539807528E0
4.930967190E-1,1.488274455E0,-1.921255231E0,8.943536319E-3,2.430280334E0
4.955020830E-1,1.398477435E0,-1.843064547E0,1.993909851E-2,2.313660223E0
4.979065620E-1,1.305625916E0,-1.755100012E0,2.971293405E-2,2.187674094E0
5.003119790E-1,1.207276702E0,-1.653696537E0,3.704331070E-2,2.047828479E0
5.027181250E-1,1.110760093E0,-1.520527959E0,3.459985182E-2,1.883345536E0
5.051233850E-1,1.012410879E0,-1.344599009E0,2.360428870E-2,1.683294224E0
5.075279690E-1,9.177269340E-1,-1.149122238E0,1.566304639E-2,1.470697105E0
5.099333850E-1,8.346493244E-1,-9.512020946E-1,1.077612955E-2,1.265520069E0
5.123394790E-1,7.589020729E-1,-7.575579882E-1,7.721805014E-3,1.072327416E0
5.147448440E-1,6.862092018E-1,-5.742985606E-1,8.332670666E-3,8.948582786E-1
5.171493750E-1,6.202358007E-1,-4.063107967E-1,1.138699520E-2,7.415595564E-1
5.195547400E-1,5.554841161E-1,-2.493185401E-1,1.199785899E-2,6.089879196E-1
5.219608850E-1,4.968411326E-1,-1.063762009E-1,1.016526390E-2,5.082030498E-1
5.243662500E-1,4.424741566E-1,2.618144453E-2,2.224023454E-3,4.432536448E-1
5.267707290E-1,3.874963522E-1,1.385805607E-1,-9.382406250E-3,4.116382202E-1
5.291761460E-1,3.337402344E-1,2.314319909E-1,-2.343229577E-2,4.068075502E-1
5.315822400E-1,2.824276090E-1,3.114552498E-1,-4.175823554E-2,4.225085528E-1
5.339876040E-1,2.341693044E-1,3.694874048E-1,-6.069504470E-2,4.416334384E-1
5.363921350E-1,1.816349328E-1,3.945328593E-1,-7.596666366E-2,4.409289737E-1
5.387975000E-1,1.242136434E-1,3.755960464E-1,-8.268617094E-2,4.041514842E-1
5.412036460E-1,6.068371236E-2,3.126769960E-1,-7.657752931E-2,3.275874460E-1
5.436090100E-1,-5.900541320E-3,2.198255360E-1,-6.008417904E-2,2.279653290E-1
5.460134900E-1,-7.126306742E-2,1.135350987E-1,-3.626045585E-2,1.388649131E-1
5.484189060E-1,-1.329603940E-1,1.152068749E-2,-9.993270971E-3,1.338322012E-1
5.508250520E-1,-1.824404448E-1,-7.827642560E-2,1.566304639E-2,1.991407686E-1
5.532303120E-1,-2.221466452E-1,-1.479150057E-1,3.887590766E-2,2.697022749E-1
5.556348960E-1,-2.533007562E-1,-1.943407357E-1,5.475838482E-2,3.239260338E-1
5.580403120E-1,-2.783462107E-1,-2.297708690E-1,6.636481732E-2,3.669816811E-1
5.604464060E-1,-2.991155982E-1,-2.609249651E-1,7.186260074E-2,4.033809761E-1
5.628517710E-1,-3.180524111E-1,-2.853595614E-1,7.430605590E-2,4.337151201E-1
5.652562500E-1,-3.351566195E-1,-3.073506951E-1,7.430605590E-2,4.607773859E-1
5.676616670E-1,-3.510391116E-1,-3.256766498E-1,7.125173509E-2,4.841183201E-1
5.700678120E-1,-3.656998575E-1,-3.354504704E-1,6.453222036E-2,5.004276285E-1
5.724730730E-1,-3.748628199E-1,-3.385047913E-1,5.842357874E-2,5.084495472E-1
5.748776560E-1,-3.840258121E-1,-3.305635750E-1,5.109319836E-2,5.092726347E-1
5.772830730E-1,-3.876909912E-1,-3.116267622E-1,4.620628059E-2,4.995503617E-1
5.796891670E-1,-3.913561702E-1,-2.774183154E-1,4.131936282E-2,4.814850604E-1
5.820945310E-1,-3.907453120E-1,-2.248839736E-1,3.826504201E-2,4.524587427E-1
5.844990620E-1,-3.907453120E-1,-1.637974977E-1,3.459985182E-2,4.250984225E-1
5.869044270E-1,-3.913561702E-1,-1.057653427E-1,2.971293405E-2,4.064834783E-1
5.893105730E-1,-3.919670284E-1,-4.590059444E-2,2.421515435E-2,3.953876447E-1
5.917158330E-1,-3.931887746E-1,1.152068749E-2,1.871737093E-2,3.938025885E-1
5.941204170E-1,-3.925779164E-1,6.955283880E-2,1.199785899E-2,3.988721179E-1
5.965258330E-1,-3.937996328E-1,1.288067102E-1,8.332670666E-3,4.144137459E-1
5.989319270E-1,-3.937996328E-1,1.923366487E-1,4.667482339E-3,4.382845224E-1
6.013372920E-1,-3.925779164E-1,2.601426244E-1,3.445752896E-3,4.709601667E-1
6.037418230E-1,-3.883018494E-1,3.303920627E-1,2.224023454E-3,5.098452585E-1
6.061471870E-1,-3.834149241E-1,4.030849636E-1,-2.194354311E-4,5.563133470E-1
6.085533330E-1,-3.773062825E-1,4.751670063E-1,-3.884623758E-3,6.067609125E-1
6.109586980E-1,-3.693650365E-1,5.454164743E-1,-6.938947365E-3,6.587547417E-1
6.133631770E-1,-3.626455367E-1,6.120007038E-1,-1.060413569E-2,7.114556166E-1
6.157685940E-1,-3.559260070E-1,6.694220304E-1,-1.426932402E-2,7.582959785E-1
6.181747400E-1,-3.492065072E-1,7.207346559E-1,-1.610191911E-2,8.010386387E-1
6.205800000E-1,-3.437087238E-1,7.641060352E-1,-1.488018874E-2,8.379827802E-1
6.229845830E-1,-3.363783360E-1,7.970927358E-1,-1.121500041E-2,8.652358005E-1
6.253899480E-1,-3.314914405E-1,8.068665862E-1,-8.771541528E-3,8.723515364E-1
6.277960940E-1,-3.284371197E-1,7.983144522E-1,-7.549812086E-3,8.632693125E-1
6.302014580E-1,-3.259936571E-1,7.683820724E-1,-4.495488480E-3,8.346874164E-1
6.326059370E-1,-3.204958737E-1,7.134042978E-1,-2.662894316E-3,7.820935930E-1
6.350113540E-1,-3.211067319E-1,6.260505915E-1,-2.052029595E-3,7.036000904E-1
6.374175000E-1,-3.223284483E-1,4.996015728E-1,-2.662894316E-3,5.945624030E-1
6.398227600E-1,-3.253827989E-1,3.316138089E-1,-7.549812086E-3,4.646489898E-1
6.422273440E-1,-3.302696943E-1,1.239197925E-1,-1.365845930E-2,3.530166278E-1
6.446327600E-1,-3.351566195E-1,-1.075979322E-1,-2.404315956E-2,3.528248123E-1
6.470388540E-1,-3.357674778E-1,-3.531655669E-1,-3.687131777E-2,4.886974635E-1
6.494442190E-1,-3.284371197E-1,-5.993440151E-1,-5.092120916E-2,6.853299640E-1
6.518487500E-1,-3.143872321E-1,-8.113140464E-1,-6.985801458E-2,8.728974486E-1
6.542541150E-1,-2.850657105E-1,-9.554781318E-1,-9.062741697E-2,1.001206396E0
6.566602600E-1,-2.459703684E-1,-1.025727630E0,-1.126185432E-1,1.060802304E0
6.590655210E-1,-2.032098472E-1,-1.031836271E0,-1.333879381E-1,1.060081447E0
6.614701040E-1,-1.580058485E-1,-1.025727630E0,-1.511030197E-1,1.048768392E0
6.638755210E-1,-1.146344617E-1,-1.037334085E0,-1.706506908E-1,1.057508733E0
6.662816150E-1,-7.492825389E-2,-1.052605629E0,-1.840897202E-1,1.071205806E0
6.686869790E-1,-4.927193373E-2,-1.047718763E0,-1.865331829E-1,1.065334201E0
6.710915100E-1,-4.621761292E-2,-9.970169663E-1,-1.761484742E-1,1.013512301E0
6.734968750E-1,-7.676085085E-2,-8.998894691E-1,-1.572116762E-1,9.167381284E-1
6.759030210E-1,-1.335712671E-1,-7.777165174E-1,-1.346096694E-1,8.005023598E-1
6.783083850E-1,-2.099293470E-1,-6.653174162E-1,-1.040664390E-1,7.053704124E-1
6.807128650E-1,-2.844548523E-1,-5.700225234E-1,-7.107974589E-2,6.410090253E-1
6.831182810E-1,-3.522608280E-1,-4.527364969E-1,-3.198440000E-2,5.745267865E-1
6.855243750E-1,-4.133473039E-1,-2.884138823E-1,1.383045409E-2,5.042121008E-1
6.879297400E-1,-4.738229215E-1,-9.049372375E-2,6.269963086E-2,4.864447746E-1
6.903342710E-1,-5.355202556E-1,1.281958520E-1,1.121796742E-1,5.619612085E-1
6.927396350E-1,-6.014936566E-1,3.725417256E-1,1.561619341E-1,7.245471040E-1
6.951457810E-1,-6.729648113E-1,6.413222551E-1,1.952572763E-1,9.498954027E-1
6.975511460E-1,-7.487120628E-1,9.210982919E-1,2.251896411E-1,1.208181357E0
6.999556250E-1,-8.330113888E-1,1.196598291E0,2.502351105E-1,1.479315063E0
7.023610420E-1,-9.276953936E-1,1.453772306E0,2.716153562E-1,1.745808570E0
7.047671870E-1,-1.029709816E0,1.679181457E0,2.874978483E-1,1.990629971E0
7.071724480E-1,-1.143330693E0,1.861829996E0,2.991042733E-1,2.205239074E0
7.095770310E-1,-1.267947078E0,1.999885440E0,3.039911985E-1,2.387392346E0
7.119824480E-1,-1.399893880E0,2.095180273E0,3.107106984E-1,2.538902202E0
7.143885420E-1,-1.536727548E0,2.155044794E0,3.162084818E-1,2.665658910E0
7.167939060E-1,-1.674172163E0,2.194751024E0,3.198736906E-1,2.778867335E0
7.191983850E-1,-1.805508018E0,2.229570389E0,3.229280114E-1,2.887061797E0
7.216038020E-1,-1.931957006E0,2.275385141E0,3.265931904E-1,3.002748496E0
7.240099480E-1,-2.049242973E0,2.337082624E0,3.308692276E-1,3.125832114E0
7.264152080E-1,-2.163474560E0,2.418327570E0,3.345344365E-1,3.262030609E0
7.288197920E-1,-2.270375967E0,2.522785425E0,3.400322199E-1,3.410963976E0
7.312252080E-1,-2.373612165E0,2.640682459E0,3.455300033E-1,3.567440195E0
7.336313020E-1,-2.476848364E0,2.765909672E0,3.522495031E-1,3.729492438E0
7.360366670E-1,-2.576419115E0,2.897245646E0,3.589690328E-1,3.893690608E0
7.384411980E-1,-2.675990105E0,3.026748896E0,3.644668162E-1,4.056472356E0
7.408465620E-1,-2.779226303E0,3.150143623E0,3.711863160E-1,4.217260126E0
7.432527080E-1,-2.878186464E0,3.268040419E0,3.791275620E-1,4.371245041E0
7.456579690E-1,-2.978979111E0,3.376774311E0,3.876796663E-1,4.519647864E0
7.480625520E-1,-3.079771757E0,3.467182398E0,3.974534869E-1,4.654494294E0
7.504679690E-1,-3.178731918E0,3.536210060E0,4.060055912E-1,4.772206904E0
7.528740620E-1,-3.276470184E0,3.581413984E0,4.127251208E-1,4.871562893E0
7.552794270E-1,-3.372986794E0,3.605237722E0,4.200554788E-1,4.954919328E0
7.576839580E-1,-3.466449022E0,3.619287729E0,4.267750084E-1,5.029676868E0
7.600893230E-1,-3.553191900E0,3.626007080E0,4.286076128E-1,5.094782087E0
7.624954690E-1,-3.631993532E0,3.629061460E0,4.298293293E-1,5.152302141E0
7.649008330E-1,-3.703464746E0,3.619287729E0,4.261641502E-1,5.195816652E0
7.673053120E-1,-3.769438028E0,3.602183342E0,4.182229042E-1,5.230611654E0
7.697107290E-1,-3.827470064E0,3.574694395E0,4.078381956E-1,5.253027613E0
7.721168230E-1,-3.874506712E0,3.536820889E0,3.937883079E-1,5.260795899E0
7.745221870E-1,-3.911158562E0,3.486730099E0,3.754623532E-1,5.253134308E0
7.769267190E-1,-3.938036680E0,3.420145750E0,3.565255702E-1,5.228062770E0
7.793320830E-1,-3.953919172E0,3.341344118E0,3.351452947E-1,5.187521538E0
7.817382290E-1,-3.960638762E0,3.246049404E0,3.125433028E-1,5.130417083E0
7.841435940E-1,-3.958195210E0,3.145256519E0,2.881087065E-1,5.063887293E0
7.865480730E-1,-3.941701889E0,3.032857418E0,2.618415356E-1,4.980341242E0
7.889534900E-1,-3.916656494E0,2.912517071E0,2.380177975E-1,4.886676401E0
7.913596350E-1,-3.881226301E0,2.792176723E0,2.166375369E-1,4.786136258E0
7.937648960E-1,-3.839076519E0,2.670003891E0,1.964790076E-1,4.680388157E0
7.961694790E-1,-3.792650938E0,2.548441887E0,1.812073886E-1,4.572919560E0
7.985748960E-1,-3.741949081E0,2.420771122E0,1.689900905E-1,4.459918542E0
8.009809900E-1,-3.688193083E0,2.287602425E0,1.573836654E-1,4.342886447E0
8.033863540E-1,-3.629549980E0,2.144660234E0,1.482206881E-1,4.218432168E0
8.057908330E-1,-3.567852736E0,1.996831059E0,1.390577257E-1,4.090995536E0
8.081962500E-1,-3.498824835E0,1.848390937E0,1.347816736E-1,3.959354793E0
8.106023960E-1,-3.424299479E0,1.701172471E0,1.317273378E-1,3.825855040E0
8.130076560E-1,-3.345497847E0,1.555175900E0,1.256186962E-1,3.691437116E0
8.154122400E-1,-3.256922483E0,1.407957435E0,1.201209128E-1,3.550255939E0
8.178176560E-1,-3.162849426E0,1.265015125E0,1.127905399E-1,3.408313581E0
8.202237500E-1,-3.063278437E0,1.124516249E0,1.042384282E-1,3.264824226E0
8.226291150E-1,-2.959431410E0,9.846282005E-1,9.202113748E-2,3.120287623E0
8.250335940E-1,-2.850697517E0,8.392423987E-1,7.736038417E-2,2.972673673E0
8.274390100E-1,-2.740741730E0,6.963000894E-1,5.903444439E-2,2.828424316E0
8.298451560E-1,-2.626510143E0,5.570229292E-1,3.948676959E-2,2.685216803E0
8.322504170E-1,-2.510445833E0,4.189674556E-1,1.505218167E-2,2.545210910E0
8.346550000E-1,-2.393159866E0,2.864097953E-1,-9.993270971E-3,2.410258198E0
8.370604170E-1,-2.274652004E0,1.569064856E-1,-3.626045585E-2,2.280345633E0
8.394665100E-1,-2.156755209E0,3.717700392E-2,-6.497109681E-2,2.158053847E0
8.418718750E-1,-2.035192966E0,-7.888729125E-2,-9.062741697E-2,2.038736605E0
8.442764060E-1,-1.914852858E0,-1.906755269E-1,-1.193380579E-1,1.928019760E0
8.466817710E-1,-1.795734286E0,-2.981877327E-1,-1.456052363E-1,1.826137573E0
8.490879170E-1,-1.677226424E0,-4.032564759E-1,-1.724832952E-1,1.733624743E0
8.514931770E-1,-1.561162233E0,-5.040491223E-1,-1.993613392E-1,1.652585241E0
8.538977600E-1,-1.449984789E0,-6.078960896E-1,-2.274611145E-1,1.588625853E0
8.563031770E-1,-1.341861725E0,-7.086887956E-1,-2.573934793E-1,1.539182933E0
8.587092710E-1,-1.238014698E0,-8.082597256E-1,-2.879367173E-1,1.506277441E0
8.611146350E-1,-1.137832880E0,-9.078307152E-1,-3.184799552E-1,1.490050252E0
8.635191670E-1,-1.044981480E0,-1.002514720E0,-3.502449095E-1,1.489863602E0
8.659245310E-1,-9.570168853E-1,-1.091090083E0,-3.807881474E-1,1.500452765E0
8.683306770E-1,-8.763827682E-1,-1.165004730E0,-4.131639898E-1,1.515251550E0
8.707360420E-1,-7.988029718E-1,-1.229756355E0,-4.443180859E-1,1.532255019E0
8.731405210E-1,-7.236666083E-1,-1.280458212E0,-4.742504656E-1,1.545373772E0
8.755459370E-1,-6.558606029E-1,-1.320164323E0,-5.017393827E-1,1.557154256E0
8.779520310E-1,-5.941632390E-1,-1.348264217E0,-5.286173820E-1,1.565337884E0
8.803573960E-1,-5.379636884E-1,-1.369644403E0,-5.530520082E-1,1.572004213E0
8.827619270E-1,-4.872619510E-1,-1.381861687E0,-5.774865746E-1,1.574946562E0
8.851672920E-1,-4.432796836E-1,-1.384305120E0,-6.025320292E-1,1.573480978E0
8.875734370E-1,-4.066278040E-1,-1.382472634E0,-6.233014464E-1,1.570057785E0
8.899788020E-1,-3.754736781E-1,-1.373309612E0,-6.428490877E-1,1.562118665E0
8.923832810E-1,-3.553151488E-1,-1.352540255E0,-6.630076170E-1,1.547641139E0
8.947886980E-1,-3.406544030E-1,-1.319553494E0,-6.801118255E-1,1.523095185E0
8.971948440E-1,-3.266045153E-1,-1.274349570E0,-6.947726011E-1,1.487731933E0
8.996001040E-1,-3.156089485E-1,-1.216928244E0,-7.045464516E-1,1.441148521E0
9.020046870E-1,-3.064459860E-1,-1.151565671E0,-7.118768096E-1,1.388085454E0
9.044100520E-1,-2.991155982E-1,-1.081927180E0,-7.143202424E-1,1.330522444E0
9.068161980E-1,-2.942286730E-1,-1.011677742E0,-7.137094140E-1,1.272573571E0
9.092215620E-1,-2.942286730E-1,-9.365413189E-1,-7.118768096E-1,1.212620611E0
9.116260420E-1,-2.978938818E-1,-8.601832390E-1,-7.063789964E-1,1.152227085E0
9.140314580E-1,-3.033916652E-1,-7.826034427E-1,-6.966052055E-1,1.090767374E0
9.164376040E-1,-3.125546277E-1,-7.001366615E-1,-6.849987507E-1,1.028156130E0
9.188428650E-1,-3.272153735E-1,-6.152265072E-1,-6.715597510E-1,9.677634293E-1
9.212474480E-1,-3.418761194E-1,-5.260402560E-1,-6.550663710E-1,9.070333965E-1
9.236528120E-1,-3.602020741E-1,-4.392974973E-1,-6.367404461E-1,8.533265617E-1
9.260589580E-1,-3.834149241E-1,-3.513329625E-1,-6.171927452E-1,8.070741845E-1
9.284643230E-1,-4.084603786E-1,-2.633684278E-1,-5.982559919E-1,7.707872868E-1
9.308688020E-1,-4.365601540E-1,-1.827342808E-1,-5.793191791E-1,7.480556775E-1
9.332742190E-1,-4.671033919E-1,-1.033218801E-1,-5.622149706E-1,7.382050276E-1
9.356803650E-1,-4.988683760E-1,-2.757465467E-2,-5.438889861E-1,7.385426510E-1
9.380856250E-1,-5.336876512E-1,4.267478734E-2,-5.243413448E-1,7.493847426E-1
9.404902080E-1,-5.703395605E-1,1.117025092E-1,-5.072371364E-1,7.713975482E-1
9.428956250E-1,-6.045479774E-1,1.788976192E-1,-4.913546741E-1,7.993197301E-1
9.453017190E-1,-6.430324316E-1,2.454818785E-1,-4.773047864E-1,8.375989016E-1
9.477070830E-1,-6.809060574E-1,3.138987124E-1,-4.632548988E-1,8.813458809E-1
9.501116150E-1,-7.163361907E-1,3.847590387E-1,-4.485941529E-1,9.286623552E-1
9.525169790E-1,-7.548207045E-1,4.550084770E-1,-4.327116609E-1,9.818484565E-1
9.549231250E-1,-7.908617258E-1,5.313665867E-1,-4.180509150E-1,1.040470704E0
9.573283850E-1,-8.262918591E-1,6.046703458E-1,-4.040010273E-1,1.100727620E0
9.597329690E-1,-8.586676717E-1,6.798067093E-1,-3.893402517E-1,1.162339522E0
9.621383850E-1,-8.886000514E-1,7.531104684E-1,-3.734577894E-1,1.223215496E0
9.645444790E-1,-9.191433191E-1,8.276360035E-1,-3.594079018E-1,1.288013911E0
9.669498440E-1,-9.447996020E-1,9.027723670E-1,-3.441362679E-1,1.351323057E0
9.693543750E-1,-9.692342281E-1,9.766869545E-1,-3.282538056E-1,1.414596394E0
9.717597400E-1,-9.900035858E-1,1.046936393E0,-3.129821718E-1,1.474496779E0
9.741658850E-1,-1.010162234E0,1.112909794E0,-2.983214259E-1,1.532315771E0
9.765712500E-1,-1.028488159E0,1.174607158E0,-2.842715383E-1,1.586915302E0
9.789757290E-1,-1.044981480E0,1.228363276E0,-2.732759714E-1,1.635708527E0
9.813811460E-1,-1.060253143E0,1.271123767E0,-2.622804046E-1,1.675912697E0
9.837872400E-1,-1.074913859E0,1.298612714E0,-2.518956959E-1,1.704490020E0
9.861926040E-1,-1.088352919E0,1.318771243E0,-2.451761961E-1,1.727362450E0
9.885971350E-1,-1.101791859E0,1.323658109E0,-2.384566814E-1,1.738642481E0
9.910025000E-1,-1.113398314E0,1.311440825E0,-2.335697562E-1,1.736112806E0
9.934086460E-1,-1.126226544E0,1.290671468E0,-2.341806293E-1,1.728889711E0
9.958140100E-1,-1.137222052E0,1.254630446E0,-2.372349501E-1,1.709868993E0
9.982184900E-1,-1.146995902E0,1.203928590E0,-2.439544648E-1,1.680641969E0
1.000623906E0,-1.154326320E0,1.142231345E0,-2.537283003E-1,1.643636136E0
1.003030000E0,-1.164100051E0,1.073203564E0,-2.641130090E-1,1.605194848E0
1.005435365E0,-1.171430469E0,9.998998642E-1,-2.787737548E-1,1.565172159E0
1.007839896E0,-1.174484849E0,9.229308963E-1,-2.934345007E-1,1.522274583E0
1.010245260E0,-1.173873901E0,8.398532867E-1,-3.111495674E-1,1.476532266E0
1.012651406E0,-1.173873901E0,7.537213564E-1,-3.306972384E-1,1.433679351E0
1.015056771E0,-1.168987036E0,6.663677096E-1,-3.502449095E-1,1.390412928E0
1.017461250E0,-1.160434961E0,5.759597421E-1,-3.704034686E-1,1.347418886E0
1.019866667E0,-1.146385074E0,4.916603267E-1,-3.923945725E-1,1.307632255E0
1.022272812E0,-1.127448201E0,4.055284262E-1,-4.131639898E-1,1.267397820E0
1.024678073E0,-1.104235411E0,3.218399584E-1,-4.333225191E-1,1.229099348E0
1.027082656E0,-1.076746464E0,2.405949533E-1,-4.528701901E-1,1.192627472E0
1.029488073E0,-1.044981480E0,1.617934108E-1,-4.699743986E-1,1.157168672E0
1.031894167E0,-1.008940458E0,8.910050243E-2,-4.852460325E-1,1.123104385E0
1.034299531E0,-9.680124521E-1,1.885106415E-2,-4.962415993E-1,1.087961026E0
1.036704010E0,-9.234193563E-1,-4.345713556E-2,-5.060154200E-1,1.053870692E0
1.039109427E0,-8.751610518E-1,-1.021001488E-1,-5.157892108E-1,1.020965140E0
1.041515573E0,-8.220158219E-1,-1.570779681E-1,-5.218978524E-1,9.862864026E-1
1.043920833E0,-7.664270997E-1,-2.090014815E-1,-5.237304568E-1,9.515175825E-1
1.046325417E0,-7.059515119E-1,-2.554271817E-1,-5.261739492E-1,9.167712949E-1
1.048730833E0,-6.442541480E-1,-2.951334119E-1,-5.231196284E-1,8.808071774E-1
1.051136927E0,-5.813351274E-1,-3.281201124E-1,-5.176218152E-1,8.447163323E-1
1.053542292E0,-5.159725547E-1,-3.562198877E-1,-5.121240616E-1,8.095624374E-1
1.055946771E0,-4.506100416E-1,-3.800435960E-1,-5.035719275E-1,7.752852576E-1
1.058352187E0,-3.858583868E-1,-3.959260881E-1,-4.931872785E-1,7.408629114E-1
1.060758333E0,-3.192741275E-1,-4.093651175E-1,-4.779156446E-1,7.056338508E-1
1.063163594E0,-2.520790398E-1,-4.179172218E-1,-4.608114362E-1,6.712271049E-1
1.065568177E0,-1.867164969E-1,-4.197498262E-1,-4.449289441E-1,6.395425960E-1
1.067973594E0,-1.231865659E-1,-4.191389382E-1,-4.266030192E-1,6.106083160E-1
1.070379687E0,-6.271096319E-2,-4.154737592E-1,-4.070553482E-1,5.850172356E-1
1.072785052E0,-4.027588293E-4,-4.087542593E-1,-3.881185353E-1,5.636632010E-1
1.075189531E0,5.885111541E-2,-4.002021551E-1,-3.679600060E-1,5.468270154E-1
1.077594948E0,1.138289422E-1,-3.904283047E-1,-3.471905887E-1,5.347266536E-1
1.080001094E0,1.663633138E-1,-3.776001334E-1,-3.258103430E-1,5.257480314E-1
1.082406354E0,2.164542228E-1,-3.629393876E-1,-3.056517839E-1,5.215366168E-1
1.084810937E0,2.628799379E-1,-3.470568955E-1,-2.867150009E-1,5.213059008E-1
1.087216354E0,3.038078845E-1,-3.336178958E-1,-2.653347254E-1,5.234526221E-1
1.089622448E0,3.459575474E-1,-3.195680082E-1,-2.427327335E-1,5.298391420E-1
1.092027812E0,3.813877106E-1,-3.067398369E-1,-2.207415998E-1,5.369103903E-1
1.094432344E0,4.137635231E-1,-2.945225537E-1,-2.011939287E-1,5.462808661E-1
1.096837708E0,4.455285072E-1,-2.835269868E-1,-1.828679889E-1,5.588594675E-1
1.099243854E0,4.754608572E-1,-2.719205320E-1,-1.645420492E-1,5.719072375E-1
1.101649115E0,5.011171699E-1,-2.566489279E-1,-1.462161094E-1,5.816925655E-1
1.104053698E0,5.249409080E-1,-2.425990403E-1,-1.297227591E-1,5.926594683E-1
1.106459115E0,5.469320416E-1,-2.273274064E-1,-1.156728715E-1,6.034837372E-1
1.108865208E0,5.670905709E-1,-2.053363025E-1,-1.022338420E-1,6.117241790E-1
1.111270573E0,5.872491002E-1,-1.796799600E-1,-8.940568566E-2,6.205963022E-1
1.113675104E0,6.055750251E-1,-1.558562517E-1,-7.718838751E-2,6.300558145E-1
1.116080469E0,6.196249127E-1,-1.283673346E-1,-6.313849986E-2,6.359242685E-1
1.118486615E0,6.306204796E-1,-1.021001488E-1,-4.786688462E-2,6.406230314E-1
1.120891979E0,6.391726136E-1,-7.583296299E-2,-3.259526566E-2,6.444801934E-1
1.123296458E0,6.452812552E-1,-4.834405333E-2,-1.549105346E-2,6.472750718E-1
1.125701875E0,6.483355761E-1,-2.268773690E-2,2.834888175E-3,6.487386139E-1
1.128107969E0,6.513898969E-1,5.412042141E-3,2.360428870E-2,6.518398963E-1
1.130513333E0,6.526116133E-1,3.290095180E-2,4.376282543E-2,6.549042490E-1
1.132917865E0,6.507790685E-1,6.772024184E-2,6.392136216E-2,6.574080678E-1
1.135323229E0,6.483355761E-1,1.037612632E-1,8.530162275E-2,6.621040596E-1
1.137729375E0,6.465029716E-1,1.416348815E-1,1.079036221E-1,6.705741746E-1
1.140134740E0,6.428378224E-1,1.819519401E-1,1.341708004E-1,6.814314185E-1
1.142539219E0,6.428378224E-1,2.326537073E-1,1.604379863E-1,7.022168902E-1
1.144944635E0,6.428378224E-1,2.845772207E-1,1.848725677E-1,7.269130118E-1
1.147350781E0,6.422269344E-1,3.401659131E-1,2.099180222E-1,7.564614067E-1
1.149756042E0,6.422269344E-1,3.914785385E-1,2.374069393E-1,7.887160048E-1
1.152160625E0,6.428378224E-1,4.464563727E-1,2.661175728E-1,8.266694147E-1
1.154565990E0,6.446703672E-1,4.996015728E-1,2.942173481E-1,8.670440945E-1
1.156972135E0,6.495572925E-1,5.606880784E-1,3.235388696E-1,9.170459081E-1
1.159377500E0,6.538333893E-1,6.144441962E-1,3.534712493E-1,9.643555855E-1
1.161781979E0,6.611637473E-1,6.682003140E-1,3.827927411E-1,1.014967705E0
1.164187396E0,6.703267097E-1,7.225672603E-1,4.108925164E-1,1.067836131E0
1.166593542E0,6.837657094E-1,7.751016021E-1,4.389922917E-1,1.122956932E0
1.168998802E0,6.990373731E-1,8.264142275E-1,4.634268880E-1,1.177445627E0
1.171403385E0,7.185850143E-1,8.783377409E-1,4.896940887E-1,1.235978119E0
1.173808750E0,7.393544316E-1,9.314829707E-1,5.122960806E-1,1.294894889E0
1.176214896E0,7.650107145E-1,9.864608049E-1,5.312328935E-1,1.356670446E0
1.178620260E0,7.986083031E-1,1.046936393E0,5.452827811E-1,1.425196247E0
1.181024740E0,8.352602124E-1,1.113520622E0,5.544457436E-1,1.498331699E0
1.183430156E0,8.774098754E-1,1.181326628E0,5.617761612E-1,1.575110519E0
1.185836302E0,9.256681800E-1,1.246689200E0,5.636087060E-1,1.651892949E0
1.188241562E0,9.843111634E-1,1.311440825E0,5.648304820E-1,1.734294951E0
1.190646146E0,1.048451900E0,1.367029548E0,5.617761612E-1,1.812074399E0
1.193051510E0,1.126031756E0,1.415287852E0,5.538349152E-1,1.891486277E0
1.195457656E0,1.210941911E0,1.450718045E0,5.440610647E-1,1.966460170E0
1.197863021E0,1.311734557E0,1.475763440E0,5.300111771E-1,2.044367170E0
1.200267500E0,1.424133658E0,1.485537291E0,5.129069686E-1,2.120860975E0
1.202672917E0,1.554858804E0,1.479428649E0,4.939701259E-1,2.202340008E0
1.205079062E0,1.705742359E0,1.460491776E0,4.744224548E-1,2.295140495E0
1.207484323E0,1.874341011E0,1.428115964E0,4.542639256E-1,2.399796897E0
1.209888906E0,2.067985296E0,1.389631510E0,4.371597171E-1,2.529574576E0
1.212294271E0,2.285453081E0,1.350536227E0,4.206663668E-1,2.687787953E0
1.214700417E0,2.524301291E0,1.310219049E0,4.084490538E-1,2.873256270E0
1.217105781E0,2.790027380E0,1.272345543E0,3.974534869E-1,3.092100457E0
1.219510260E0,3.077744722E0,1.232639313E0,3.937883079E-1,3.338709554E0
1.221915677E0,3.385620356E0,1.194765687E0,3.950100243E-1,3.611914057E0
1.224321823E0,3.716098309E0,1.158113837E0,4.041730165E-1,3.913306802E0
1.226727083E0,4.065512657E0,1.120240211E0,4.224989414E-1,4.238140707E0
1.229131667E0,4.431420803E0,1.076868773E0,4.499878585E-1,4.582534862E0
1.231537083E0,4.815654755E0,1.034108281E0,4.872505963E-1,4.949477124E0
1.233943177E0,5.212716579E0,9.944020510E-1,5.300111771E-1,5.333119296E0
1.236348542E0,5.618330956E0,9.546958208E-1,5.794911981E-1,5.728254262E0
1.238753021E0,6.026388645E0,9.107135534E-1,6.326364279E-1,6.127559721E0
1.241158437E0,6.436278820E0,8.606226444E-1,6.876142621E-1,6.529867515E0
1.243564583E0,6.841892719E0,7.964818478E-1,7.425920963E-1,6.928009984E0
1.245969844E0,7.235289574E0,7.097390890E-1,7.963482141E-1,7.313502257E0
1.248374427E0,7.614025593E0,5.991725922E-1,8.470499516E-1,7.684392438E0
1.250779844E0,7.977490425E0,4.580627978E-1,8.916431069E-1,8.040224029E0
1.253185937E0,8.325683594E0,2.870206833E-1,9.301275611E-1,8.382393778E0
1.255591302E0,8.653107643E0,8.726791292E-2,9.643359780E-1,8.707113842E0
1.257995833E0,8.968313217E0,-1.375302970E-1,9.942684174E-1,9.024307521E0
1.260401198E0,9.269469261E0,-3.733240962E-1,1.019313812E0,9.332814790E0
1.262807344E0,9.560852051E0,-6.103395820E-1,1.038250566E0,9.636408593E0
1.265212604E0,9.842460632E0,-8.369703889E-1,1.053522229E0,9.934005225E0
1.267617187E0,1.011490631E1,-1.049551368E0,1.067572117E0,1.022509648E1
1.270022604E0,1.037696743E1,-1.241362810E0,1.078567743E0,1.050646197E1
1.272428698E0,1.063169765E1,-1.405685425E0,1.089563251E0,1.077942923E1
1.274834062E0,1.087970924E1,-1.552903891E0,1.106056571E0,1.104549432E1
1.277238594E0,1.111428070E1,-1.692180991E0,1.129269481E0,1.129893630E1
1.279643958E0,1.133663559E1,-1.832679868E0,1.156758428E0,1.154192844E1
1.282050104E0,1.154494095E1,-1.949355006E0,1.191577673E0,1.176883613E1
1.284455469E0,1.174286079E1,-2.037319660E0,1.238614202E0,1.198247120E1
1.286859948E0,1.193528366E1,-2.086799622E0,1.296035528E0,1.218546006E1
1.289265365E0,1.212342930E1,-2.106958151E0,1.364452362E0,1.238057110E1
1.291671458E0,1.230180264E1,-2.107569218E0,1.444475651E0,1.256434264E1
1.294076823E0,1.246856785E1,-2.102071285E0,1.536105394E0,1.273748435E1
1.296481354E0,1.262861443E1,-2.094130039E0,1.636287212E0,1.290522060E1
1.298886719E0,1.278194141E1,-2.077636719E0,1.743188500E0,1.306649558E1
1.301292865E0,1.293221474E1,-2.056867361E0,1.862307072E0,1.322652898E1
1.303698229E0,1.307821083E1,-2.037930489E0,1.986923575E0,1.338434251E1
1.306102708E0,1.321809959E1,-2.019604445E0,2.112761736E0,1.353738236E1
1.308508125E0,1.335371113E1,-2.000667810E0,2.239821434E0,1.368725950E1
1.310914219E0,1.350031853E1,-1.956685424E0,2.360772848E0,1.384414918E1
1.313319583E0,1.367624760E1,-1.839399338E0,2.473782778E0,1.401937015E1
1.315724115E0,1.385461998E1,-1.746547937E0,2.576407909E0,1.419995782E1
1.318129479E0,1.400550365E1,-1.737995863E0,2.651544333E0,1.435985549E1
1.320535625E0,1.412095737E1,-1.775258541E0,2.694915771E0,1.448501126E1
1.322940990E0,1.421625233E1,-1.792362809E0,2.708965540E0,1.458262284E1
1.325345469E0,1.429749680E1,-1.739217639E0,2.707743883E0,1.465520964E1
1.327750885E0,1.437202263E1,-1.635981441E0,2.706522226E0,1.471586668E1
1.330157031E0,1.444899178E1,-1.488763094E0,2.708354712E0,1.477582364E1
1.332562292E0,1.452962589E1,-1.306114435E0,2.712630749E0,1.483827244E1
1.334966875E0,1.464202499E1,-1.032447100E0,2.729124069E0,1.492993507E1
1.337372292E0,1.480390453E1,-6.121721864E-1,2.772495508E0,1.507372136E1
1.339778385E0,1.497983265E1,-1.570779681E-1,2.825640678E0,1.524481239E1
1.342183750E0,1.513865757E1,3.218399584E-1,2.895279408E0,1.541639312E1
1.344588229E0,1.526388550E1,8.624552488E-1,2.994850397E0,1.557880478E1
1.346993646E0,1.535612583E1,1.431781173E0,3.122521162E0,1.573565176E1
1.349399792E0,1.542332077E1,2.012713432E0,3.278902531E0,1.589594416E1
1.351805052E0,1.547707653E1,2.602808714E0,3.461550951E0,1.607161616E1
1.354209635E0,1.552228069E1,3.188627958E0,3.664968967E0,1.626470239E1
1.356615052E0,1.555648899E1,3.762840748E0,3.885491133E0,1.646998365E1
1.359021146E0,1.557664776E1,4.319949627E0,4.123117447E0,1.668214667E1
1.361426510E0,1.558275700E1,4.841628075E0,4.369295597E0,1.689243683E1
1.363830990E0,1.556931782E1,5.286337852E0,4.604478836E0,1.707484262E1
1.366236406E0,1.552961159E1,5.614372253E0,4.801177025E0,1.719713094E1
1.368642552E0,1.546730328E1,5.845278740E0,4.962445259E0,1.726356328E1
1.371047812E0,1.539277744E1,6.038923264E0,5.113328934E0,1.730757997E1
1.373452396E0,1.531519794E1,6.228901863E0,5.269710541E0,1.735293507E1
1.375857812E0,1.523028755E1,6.420102596E0,5.430367947E0,1.739736395E1
1.378263906E0,1.514476681E1,6.620466232E0,5.592247009E0,1.744900460E1
1.380669271E0,1.505252647E1,6.823273182E0,5.759013176E0,1.750148116E1
1.383073802E0,1.495600891E1,7.032188892E0,5.928833485E0,1.755804515E1
1.385479167E0,1.485094070E1,7.242937565E0,6.104762554E0,1.761472992E1
1.387885312E0,1.473854160E1,7.457350731E0,6.283134937E0,1.767242126E1
1.390290677E0,1.462247753E1,7.679094791E0,6.465783596E0,1.773673317E1
1.392695156E0,1.449663925E1,7.902671337E0,6.650264740E0,1.779974115E1
1.395100573E0,1.436713600E1,8.131745338E0,6.839632511E0,1.786953978E1
1.397506719E0,1.422846985E1,8.364484787E0,7.033276558E0,1.794104064E1
1.399911979E0,1.408247280E1,8.601500511E0,7.230586052E0,1.801619344E1
1.402316562E0,1.392548084E1,8.842791557E0,7.427895546E0,1.809109205E1
1.404721927E0,1.376299095E1,9.086526871E0,7.629480839E0,1.817123739E1
1.407128073E0,1.359133720E1,9.334537506E0,7.833509445E0,1.825436681E1
1.409533437E0,1.341113281E1,9.586214066E0,8.041814804E0,1.834188564E1
1.411937917E0,1.321993160E1,9.840944290E0,8.251952171E0,1.843110118E1
1.414343333E0,1.301773548E1,1.009567547E1,8.465143204E0,1.852141327E1
1.416749479E0,1.280943108E1,1.035712528E1,8.679556847E0,1.861951330E1
1.419154740E0,1.258951950E1,1.061857510E1,8.895192146E0,1.871829537E1
1.421559323E0,1.235739040E1,1.088185787E1,9.112660408E0,1.881915269E1
1.423964687E0,1.211548805E1,1.114758396E1,9.330739021E0,1.892396284E1
1.426370833E0,1.186259079E1,1.141208839E1,9.550039291E0,1.903050373E1
1.428776198E0,1.159564209E1,1.167659283E1,9.768729210E0,1.913713160E1
1.431180677E0,1.131647778E1,1.193865395E1,9.988029480E0,1.924460600E1
1.433586094E0,1.102814960E1,1.220132542E1,1.020610809E1,1.935606024E1
1.435992240E0,1.072821426E1,1.246521950E1,1.042357635E1,1.947118955E1
1.438397500E0,1.041606236E1,1.272239304E1,1.063921165E1,1.958434232E1
1.440802083E0,1.008986092E1,1.297468090E1,1.085301399E1,1.969607957E1
1.443207500E0,9.754496574E0,1.322452450E1,1.106376171E1,1.981022652E1
1.445613594E0,9.404470444E0,1.347375679E1,1.127023411E1,1.992496834E1
1.448018958E0,9.045282364E0,1.371627045E1,1.147243023E1,2.003920815E1
1.450423490E0,8.672043800E0,1.395084286E1,1.166973972E1,2.014976887E1
1.452828854E0,8.285977364E0,1.418113804E1,1.186521626E1,2.026192127E1
1.455235000E0,7.888304234E0,1.440776920E1,1.205214119E1,2.037310149E1
1.457640260E0,7.477802753E0,1.462096119E1,1.223173523E1,2.047694769E1
1.460044844E0,7.057528019E0,1.482743359E1,1.240644264E1,2.058109102E1
1.462450260E0,6.623814106E0,1.502779675E1,1.257443047E1,2.068395247E1
1.464856354E0,6.182158947E0,1.521899796E1,1.273081207E1,2.078245808E1
1.467261719E0,5.731951714E0,1.539920235E1,1.287925243E1,2.087740038E1
1.469666250E0,5.270748615E0,1.556841183E1,1.301975060E1,2.096831284E1
1.472071615E0,4.797328472E0,1.572418308E1,1.314803219E1,2.105077301E1
1.474477760E0,4.316577911E0,1.587017918E1,1.326776218E1,2.113123151E1
1.476883125E0,3.828497410E0,1.600334930E1,1.337710667E1,2.120640385E1
1.479287604E0,3.334307909E0,1.612307739E1,1.347484493E1,2.127540081E1
1.481693021E0,2.834620476E0,1.622509193E1,1.355731201E1,2.133282425E1
1.484099167E0,2.328213692E0,1.631305695E1,1.362817192E1,2.138371988E1
1.486504427E0,1.818752289E0,1.638819313E1,1.368742657E1,2.142956789E1
1.488909010E0,1.305015087E0,1.644927979E1,1.373446274E1,2.146898546E1
1.491314375E0,7.876127362E-1,1.649081802E1,1.376744938E1,2.149674569E1
1.493720521E0,2.714320421E-1,1.651708603E1,1.378821850E1,2.151749929E1
1.496125885E0,-2.459703684E-1,1.652563858E1,1.379677105E1,2.152923880E1
1.498530365E0,-7.639836669E-1,1.652380562E1,1.379066277E1,2.153606748E1
1.500935781E0,-1.277720928E0,1.650303650E1,1.376867104E1,2.153042235E1
1.503341927E0,-1.790847301E0,1.646516228E1,1.373507404E1,2.151652764E1
1.505747187E0,-2.300919294E0,1.641140556E1,1.368925858E1,2.149474965E1
1.508151771E0,-2.804882526E0,1.634237862E1,1.363061619E1,2.146472461E1
1.510557187E0,-3.304569960E0,1.625563622E1,1.355914497E1,2.142466578E1
1.512963281E0,-3.796926975E0,1.615301132E1,1.347606659E1,2.137617365E1
1.515368646E0,-4.280732155E0,1.603877831E1,1.337893963E1,2.132048552E1
1.517773177E0,-4.759038925E0,1.591049671E1,1.327264881E1,2.125924654E1
1.520178542E0,-5.228183270E0,1.576816463E1,1.315658474E1,2.119114528E1
1.522584687E0,-5.685720921E0,1.561361599E1,1.302891445E1,2.111551653E1
1.524989948E0,-6.137760639E0,1.544684982E1,1.289330196E1,2.103602887E1
1.527394531E0,-6.574529171E0,1.526664543E1,1.274852753E1,2.094802737E1
1.529799948E0,-7.002745152E0,1.508094215E1,1.259336758E1,2.085823969E1
1.532206042E0,-7.419354916E0,1.488363266E1,1.243148804E1,2.076321852E1
1.534611406E0,-7.822525501E0,1.467410660E1,1.226044655E1,2.066010308E1
1.537015937E0,-8.215311050E0,1.445847130E1,1.208390617E1,2.055625249E1
1.539421302E0,-8.596490860E0,1.423611641E1,1.190309048E1,2.045116692E1
1.541827448E0,-8.963620186E0,1.400704193E1,1.171922016E1,2.034413507E1
1.544232708E0,-9.319754601E0,1.377246952E1,1.152496529E1,2.023273504E1
1.546637292E0,-9.666114807E0,1.353423309E1,1.133009911E1,2.012412449E1
1.549042708E0,-9.997203827E0,1.328866482E1,1.113278961E1,2.001178906E1
1.551448854E0,-1.031179905E1,1.303698921E1,1.093059349E1,1.989407352E1
1.553854115E0,-1.061478806E1,1.278347969E1,1.072595406E1,1.977718809E1
1.556258698E0,-1.090983582E1,1.252935982E1,1.052009296E1,1.966422465E1
1.558664062E0,-1.119083309E1,1.227462959E1,1.031484222E1,1.955242305E1
1.561070208E0,-1.146022415E1,1.201562309E1,1.010836983E1,1.943942068E1
1.563475573E0,-1.171862030E1,1.175722694E1,9.900064468E0,1.932795187E1
1.565880052E0,-1.196296597E1,1.150005341E1,9.691148758E0,1.921671531E1
1.568285469E0,-1.219814968E1,1.124287891E1,9.484066010E0,1.910875951E1
1.570691615E0,-1.242355824E1,1.098753738E1,9.278204918E0,1.900410123E1
1.573096875E0,-1.263736057E1,1.073219585E1,9.072342873E0,1.889947923E1
1.575501458E0,-1.284200096E1,1.047807693E1,8.868925095E0,1.879800301E1
1.577906823E0,-1.303686619E1,1.022517872E1,8.667340279E0,1.869858143E1
1.580312969E0,-1.321951485E1,9.976556778E0,8.468197823E0,1.860101159E1
1.582718333E0,-1.339361191E1,9.728545189E0,8.272109985E0,1.850570817E1
1.585122812E0,-1.356098843E1,9.484810829E0,8.078466415E0,1.841531056E1
1.587528229E0,-1.371981335E1,9.244130135E0,7.887265682E0,1.832747064E1
1.589934375E0,-1.386825371E1,9.005281448E0,7.699119091E0,1.824006551E1
1.592339635E0,-1.401119614E1,8.768877029E0,7.512805462E0,1.815624045E1
1.594744219E0,-1.414802933E1,8.539192200E0,7.331378937E0,1.807854127E1
1.597149583E0,-1.427264595E1,8.311949730E0,7.153006077E0,1.799895627E1
1.599555729E0,-1.439054298E1,8.086541176E0,6.977687836E0,1.792116076E1
1.601961094E0,-1.450660706E1,7.867852211E0,6.805424213E0,1.785100965E1
1.604365573E0,-1.461472988E1,7.651606083E0,6.638658047E0,1.778227167E1
1.606770990E0,-1.471735573E1,7.439635754E0,6.473724842E0,1.771603379E1
1.609177135E0,-1.481265068E1,7.231330872E0,6.312456608E0,1.765088878E1
1.611582396E0,-1.490427971E1,7.027913094E0,6.154853344E0,1.759009198E1
1.613986979E0,-1.499224472E1,6.825716972E0,6.002748013E0,1.753256392E1
1.616392396E0,-1.507471085E1,6.628407478E0,5.853696823E0,1.747708383E1
1.618798490E0,-1.514984798E1,6.437206745E0,5.705867767E0,1.742160875E1
1.621203854E0,-1.522131824E1,6.249060631E0,5.564757824E0,1.736968098E1
1.623608385E0,-1.528973579E1,6.064579487E0,5.426702499E0,1.732063062E1
1.626013750E0,-1.535448742E1,5.882541656E0,5.292312145E0,1.727348106E1
1.628419896E0,-1.541312981E1,5.709055901E0,5.160365582E0,1.722751470E1
1.630825260E0,-1.547238445E1,5.536792278E0,5.033305645E0,1.718676570E1
1.633229740E0,-1.552675152E1,5.367582798E0,4.909911156E0,1.714637528E1
1.635635156E0,-1.557867432E1,5.202038288E0,4.792014122E0,1.710905302E1
1.638041250E0,-1.562571144E1,5.042602539E0,4.676560879E0,1.707222657E1
1.640446615E0,-1.566847134E1,4.886832237E0,4.562939644E0,1.703533215E1
1.642851146E0,-1.571001053E1,4.732283592E0,4.452373505E0,1.700066377E1
1.645256510E0,-1.574849510E1,4.580178261E0,4.346693516E0,1.696722946E1
1.647662656E0,-1.578453636E1,4.431737900E0,4.246511936E0,1.693590129E1
1.650067917E0,-1.581996632E1,4.290017128E0,4.146941185E0,1.690777047E1
1.652472500E0,-1.585173130E1,4.153183460E0,4.051035404E0,1.688008311E1
1.654877917E0,-1.587738705E1,4.015738964E0,3.958184004E0,1.684888125E1
1.657284010E0,-1.590426540E1,3.882570267E0,3.868997812E0,1.682228147E1
1.659689375E0,-1.593419743E1,3.752456188E0,3.782865763E0,1.680147757E1
1.662093906E0,-1.595802116E1,3.624174595E0,3.699788094E0,1.677741079E1
1.664499271E0,-1.597817993E1,3.498336315E0,3.620375872E0,1.675254346E1
1.666905417E0,-1.600078201E1,3.378607035E0,3.543406725E0,1.673307329E1
1.669310781E0,-1.601972008E1,3.259488344E0,3.470103025E0,1.671219048E1
1.671715260E0,-1.603743553E1,3.144034863E0,3.398020983E0,1.669223892E1
1.674120677E0,-1.605514908E1,3.029192209E0,3.330214977E0,1.667435603E1
1.676526771E0,-1.607042122E1,2.916793108E0,3.266074181E0,1.665633095E1
1.678932135E0,-1.608508301E1,2.808059216E0,3.202544212E0,1.663945256E1
1.681336667E0,-1.609790993E1,2.702379704E0,3.142068624E0,1.662282032E1
1.683742031E0,-1.610890579E1,2.597921848E0,3.084036589E0,1.660594247E1
1.686148177E0,-1.611745834E1,2.496518373E0,3.029669523E0,1.658866977E1
1.688553542E0,-1.612723160E1,2.395114660E0,2.978357077E0,1.657391879E1
1.690958021E0,-1.613578415E1,2.296765566E0,2.927655220E0,1.655928221E1
1.693363437E0,-1.614433670E1,2.200248957E0,2.880007744E0,1.654615205E1
1.695769583E0,-1.615166664E1,2.108008385E0,2.834192991E0,1.653338092E1
1.698174844E0,-1.615655327E1,2.015156984E0,2.790210724E0,1.651909038E1
1.700579427E0,-1.615899658E1,1.923527241E0,2.749282598E0,1.650368693E1
1.702984792E0,-1.616327286E1,1.834951878E0,2.711409092E0,1.649151834E1
1.705390937E0,-1.616632652E1,1.748209119E0,2.674757242E0,1.647909811E1
1.707796302E0,-1.616938210E1,1.660244584E0,2.640548706E0,1.646747785E1
1.710200781E0,-1.617304611E1,1.575334430E0,2.608172894E0,1.645757166E1
1.712606198E0,-1.617610168E1,1.489202499E0,2.580073118E0,1.644812351E1
1.715012344E0,-1.617610168E1,1.406124830E0,2.552584171E0,1.643651845E1
1.717417604E0,-1.617365837E1,1.324879885E0,2.525095463E0,1.642311295E1
1.719822187E0,-1.617304611E1,1.241191387E0,2.501271725E0,1.641232271E1
1.722227604E0,-1.617304611E1,1.161778927E0,2.478669643E0,1.640307758E1
1.724633698E0,-1.617365837E1,1.080533981E0,2.459121943E0,1.639518403E1
1.727039062E0,-1.617182541E1,1.002343297E0,2.441406965E0,1.638575897E1
1.729443542E0,-1.616999245E1,9.210982919E-1,2.426135302E0,1.637691089E1
1.731848958E0,-1.616388321E1,8.416858912E-1,2.412085295E0,1.636452599E1
1.734255104E0,-1.615838623E1,7.659386396E-1,2.398035526E0,1.635330798E1
1.736660365E0,-1.615777588E1,6.877479553E-1,2.388872623E0,1.634788766E1
1.739064948E0,-1.615227699E1,6.095572710E-1,2.380931377E0,1.633818981E1
1.741470365E0,-1.614861298E1,5.307556987E-1,2.374211788E0,1.633083844E1
1.743876458E0,-1.614494705E1,4.556193352E-1,2.369324923E0,1.632423367E1
1.746281823E0,-1.613945007E1,3.774286509E-1,2.366881371E0,1.631644656E1
1.748686354E0,-1.613700676E1,2.998488247E-1,2.366270542E0,1.631233070E1
1.751091719E0,-1.613456154E1,2.234907448E-1,2.368103027E0,1.630895264E1
1.753497865E0,-1.612723160E1,1.483543813E-1,2.370546579E0,1.630119932E1
1.755903125E0,-1.612173462E1,7.016370445E-2,2.373600960E0,1.629568138E1
1.758307708E0,-1.611684799E1,-1.169217005E-2,2.380320311E0,1.629168041E1
1.760713125E0,-1.610951614E1,-8.988285065E-2,2.389483452E0,1.628601303E1
1.763119219E0,-1.610157585E1,-1.692952812E-1,2.399868011E0,1.628031856E1
1.765524583E0,-1.609363365E1,-2.529837489E-1,2.411474466E0,1.627526510E1
1.767929115E0,-1.608508301E1,-3.360613585E-1,2.425524473E0,1.627040262E1
1.770334479E0,-1.607775116E1,-4.191389382E-1,2.441406965E0,1.626745917E1
1.772740625E0,-1.607042122E1,-5.040491223E-1,2.459732771E0,1.626538622E1
1.775145885E0,-1.606370163E1,-5.895701647E-1,2.479891300E0,1.626468456E1
1.777550469E0,-1.605270576E1,-6.757020950E-1,2.503715038E0,1.626082792E1
1.779955885E0,-1.604415512E1,-7.642774582E-1,2.528760433E0,1.626018644E1
1.782361979E0,-1.603437996E1,-8.504093885E-1,2.556249380E0,1.625911891E1
1.784767344E0,-1.602521706E1,-9.395956397E-1,2.584959984E0,1.625953381E1
1.787171875E0,-1.601361084E1,-1.028781891E0,2.616114140E0,1.625848017E1
1.789577240E0,-1.600444794E1,-1.119800806E0,2.648489952E0,1.626071360E1
1.791983385E0,-1.599406242E1,-1.212041378E0,2.684530973E0,1.626301890E1
1.794388646E0,-1.598123455E1,-1.303060174E0,2.719961166E0,1.626333337E1
1.796793229E0,-1.596901703E1,-1.397744179E0,2.759056568E0,1.626577962E1
1.799198646E0,-1.595618916E1,-1.494260788E0,2.802428007E0,1.626918530E1
1.801604740E0,-1.594213867E1,-1.591999173E0,2.845188379E0,1.627210324E1
1.804010104E0,-1.592564583E1,-1.689737558E0,2.892225027E0,1.627410132E1
1.806414635E0,-1.591037369E1,-1.794806242E0,2.939872503E0,1.627894870E1
1.808820000E0,-1.589632416E1,-1.900485873E0,2.989352465E0,1.628622720E1
1.811226146E0,-1.587799835E1,-2.003111124E0,3.043719530E0,1.629071866E1
1.813631510E0,-1.585783958E1,-2.110012531E0,3.098697424E0,1.629494262E1
1.816035990E0,-1.584012508E1,-2.221800804E0,3.154896975E0,1.630335353E1
1.818441406E0,-1.582057667E1,-2.335421562E0,3.215372562E0,1.631206488E1
1.820847500E0,-1.579980755E1,-2.453929424E0,3.278902531E0,1.632197568E1
1.823252865E0,-1.577659512E1,-2.576713324E0,3.344264984E0,1.633170271E1
1.825657396E0,-1.575826836E1,-2.698886156E0,3.414514303E0,1.634826951E1
1.828062760E0,-1.573566723E1,-2.824113369E0,3.486596346E0,1.636286019E1
1.830468906E0,-1.570573425E1,-2.951173306E0,3.559289217E0,1.637217310E1
1.832874271E0,-1.567946720E1,-3.081898451E0,3.636869192E0,1.638812397E1
1.835278750E0,-1.565136719E1,-3.215066910E0,3.718114138E0,1.640507003E1
1.837684167E0,-1.561960220E1,-3.348846197E0,3.799359083E0,1.642016666E1
1.840090260E0,-1.559028053E1,-3.487512589E0,3.886101961E0,1.644145309E1
1.842495625E0,-1.555668354E1,-3.626178741E0,3.976509809E0,1.646123341E1
1.844900156E0,-1.552308559E1,-3.767899513E0,4.068750381E0,1.648387038E1
1.847305521E0,-1.548521233E1,-3.913285255E0,4.164656162E0,1.650605838E1
1.849711667E0,-1.544245148E1,-4.059892654E0,4.262394428E0,1.652634389E1
1.852117031E0,-1.540274525E1,-4.210165024E0,4.365019798E0,1.655365363E1
1.854521510E0,-1.535815239E1,-4.363492489E0,4.469477654E0,1.657978112E1
1.856926927E0,-1.531111622E1,-4.519262791E0,4.575767994E0,1.660697651E1
1.859333073E0,-1.525919247E1,-4.676866055E0,4.685112953E0,1.663328934E1
1.861738333E0,-1.520543671E1,-4.838745117E0,4.798122883E0,1.666255511E1
1.864142917E0,-1.515351295E1,-5.012230873E0,4.898915291E0,1.669583134E1
1.866548281E0,-1.513213253E1,-5.243748188E0,4.917241573E0,1.675283841E1
1.868954427E0,-1.519444084E1,-5.615765095E0,4.806064129E0,1.689692583E1
1.871359792E0,-1.532760906E1,-7.863747120E0,4.653347969E0,1.784454442E1
1.873764271E0,-1.466054535E1,-1.608965111E1,4.689388752E0,2.226654058E1
1.876169687E0,-1.320974159E1,-1.996681023E1,5.102333546E0,2.447865583E1
1.878575833E0,-1.125558472E1,-2.005477333E1,5.543377876E0,2.365610194E1
1.880981094E0,-9.239120483E0,-2.004072380E1,5.910507202E0,2.284570098E1
1.883385677E0,-7.445011139E0,-2.005843925E1,6.185396671E0,2.227169298E1
1.885791094E0,-6.054072380E0,-2.005843925E1,6.443792343E0,2.192065778E1
1.888197187E0,-5.338139057E0,-2.005843925E1,6.787098408E0,2.183807269E1
1.890602552E0,-6.546429157E0,-2.005843925E1,7.510362148E0,2.239647873E1
1.893007083E0,-7.956915855E0,-2.005843925E1,8.239734650E0,2.309863031E1
1.895412448E0,-7.943476677E0,-2.005843925E1,8.759580612E0,2.328454551E1
1.897818594E0,-7.372318268E0,-2.005843925E1,9.165194511E0,2.325280311E1
1.900223958E0,-6.454799652E0,-2.005843925E1,9.319132805E0,2.304021832E1
1.902628437E0,-5.030873775E0,-2.005843925E1,9.062569618E0,2.257832687E1
1.905033854E0,-3.620387077E0,-2.005843925E1,8.642294884E0,2.213904806E1
1.907440000E0,-2.761511326E0,-2.005843925E1,8.492632866E0,2.195658769E1
1.909845260E0,-2.332073450E0,-2.005843925E1,8.737588882E0,2.200284098E1
1.912249844E0,-2.078564405E0,-2.005843925E1,9.162139893E0,2.214963256E1
1.914655260E0,-1.702271938E0,-2.000284958E1,9.521939278E0,2.221888946E1
1.917061354E0,-1.244123340E0,-1.959112740E1,9.766896248E0,2.192606617E1
1.919466719E0,-7.371056080E-1,-1.884526253E1,9.936105728E0,2.131697543E1
1.921871250E0,-2.160380036E-1,-1.811772156E1,1.005033779E1,2.071974412E1
1.924276615E0,2.695994675E-1,-1.751052284E1,1.009248734E1,2.021260485E1
1.926682760E0,7.479065061E-1,-1.695891190E1,1.008271313E1,1.974399050E1
1.929088125E0,1.406418681E0,-1.641463089E1,1.003140068E1,1.928852302E1
1.931492604E0,2.444278002E0,-1.574023724E1,9.880517006E0,1.874444396E1
1.933898021E0,3.486413240E0,-1.494550228E1,9.681375504E0,1.814530648E1
1.936304115E0,4.130264282E0,-1.426744270E1,9.533546448E0,1.764957541E1
1.938709479E0,4.527326584E0,-1.379402256E1,9.424201012E0,1.730859062E1
1.941114010E0,4.840089321E0,-1.347026443E1,9.308136940E0,1.707383676E1
1.943519375E0,5.107037067E0,-1.323813534E1,9.167637825E0,1.689306479E1
1.945925521E0,5.347717762E0,-1.311535168E1,8.991098404E0,1.677648311E1
1.948330885E0,5.996456146E0,-1.201212978E1,8.638018608E0,1.596446409E1
1.950735365E0,7.808891773E0,-7.332905769E0,7.771201134E0,1.323411745E1
1.953140781E0,9.018404007E0,-2.731872797E0,6.300239086E0,1.133524382E1
1.955546875E0,9.438068390E0,3.603244424E-1,5.052242279E0,1.071130808E1
1.957952240E0,9.627436638E0,2.255226612E0,4.317983150E0,1.078974336E1
1.960356771E0,9.675694466E0,3.359059334E0,3.849450111E0,1.094169133E1
1.962762135E0,9.618884087E0,4.080490589E0,3.548904657E0,1.103485654E1
1.965168281E0,9.504652977E0,4.589951992E0,3.354649544E0,1.107518673E1
1.967573646E0,9.367818832E0,4.972964287E0,3.228200674E0,1.108637376E1
1.969978125E0,9.226098061E0,5.302831173E0,3.137792587E0,1.109444213E1
1.972383542E0,9.088653564E0,5.610095978E0,3.073040962E0,1.111397234E1
1.974789635E0,8.946932793E0,5.892926216E0,3.023561001E0,1.113176118E1
1.977195000E0,8.797271729E0,6.140937328E0,3.001569748E0,1.114057997E1
1.979599531E0,8.642722130E0,6.288766861E0,3.011954546E0,1.110482348E1
1.982004896E0,8.483897209E0,6.257001877E0,3.052271605E0,1.097465017E1
1.984411042E0,8.329959869E0,6.058470726E0,3.116412401E0,1.076128827E1
1.986816406E0,8.174189568E0,5.703558445E0,3.204376936E0,1.046976531E1
1.989220885E0,8.017196655E0,5.218531609E0,3.310056448E0,1.012249910E1
1.991626302E0,7.852262974E0,4.656536102E0,3.428564310E0,9.751739102E0
1.994032396E0,7.683664322E0,4.067051888E0,3.559900284E0,9.394280095E0
1.996437760E0,7.505902767E0,3.488562584E0,3.691847086E0,9.063022683E0
1.998842292E0,7.311647892E0,2.965662479E0,3.818906784E0,8.765808455E0
2.001247656E0,7.100899220E0,2.525228977E0,3.933138609E0,8.501125245E0
2.003653802E0,6.876101017E0,2.172760010E0,4.029654980E0,8.260736681E0
2.006059167E0,6.642139912E0,1.899703622E0,4.109067440E0,8.038117422E0
2.008463646E0,6.400237560E0,1.681624889E0,4.174429893E0,7.824114521E0
2.010869062E0,6.160167694E0,1.503863215E0,4.222077370E0,7.618084267E0
2.013275156E0,5.921930313E0,1.365196943E0,4.259340286E0,7.421253331E0
2.015680521E0,5.684915066E0,1.285784483E0,4.286828995E0,7.235219684E0
2.018085052E0,5.456451416E0,1.284562826E0,4.306987286E0,7.069165664E0
2.020490417E0,5.233486176E0,1.366418719E0,4.330811024E0,6.929098195E0
2.022896562E0,5.000135899E0,1.527076125E0,4.360132694E0,6.807648464E0
2.025301927E0,4.744794369E0,1.762259007E0,4.398617268E0,6.705703861E0
2.027706406E0,4.410651207E0,2.098234415E0,4.440155983E0,6.600864859E0
2.030111823E0,3.965331078E0,2.405499458E0,4.468255997E0,6.440154490E0
2.032517917E0,3.070414305E0,2.340137005E0,4.361354351E0,5.824525472E0
2.034923281E0,5.591493249E-1,1.782417536E0,3.829291582E0,4.260649512E0
2.037327812E0,-1.831775188E0,1.269901991E0,2.916659594E0,3.670824784E0
2.039733177E0,-3.061445713E0,1.040827751E0,2.024186373E0,3.814852911E0
2.042139323E0,-3.815863848E0,7.286759019E-1,1.456692934E0,4.148944417E0
2.044544687E0,-4.232473850E0,4.452346265E-1,1.145762801E0,4.407362155E0
2.046949167E0,-4.432837486E0,2.766359746E-1,9.728881121E-1,4.546766645E0
2.049354583E0,-4.558064461E0,2.491470575E-1,8.702628016E-1,4.647083303E0
2.051760677E0,-4.720554829E0,4.061392844E-1,7.945156097E-1,4.804148422E0
2.054166042E0,-4.986891747E0,7.079064846E-1,7.157140374E-1,5.087481446E0
2.056570573E0,-5.305763245E0,1.127570510E0,6.167539358E-1,5.459205462E0
2.058975937E0,-5.583095551E0,1.622370958E0,4.841962755E-1,5.834165706E0
2.061382083E0,-5.781015873E0,2.110451698E0,3.259823322E-1,6.162825275E0
2.063787344E0,-5.899523735E0,2.566767693E0,1.433337778E-1,6.435310502E0
2.066191927E0,-5.950225353E0,3.024305344E0,-7.169060409E-2,6.675083828E0
2.068597344E0,-5.973438263E0,3.448856354E0,-2.995431423E-1,6.904078572E0
2.071003437E0,-5.986876965E0,3.820873022E0,-5.310608745E-1,7.122063752E0
2.073408802E0,-6.002759457E0,4.126305580E0,-7.552481890E-1,7.323245091E0
2.075813333E0,-6.013755322E0,4.361488342E0,-9.684399962E-1,7.491709395E0
2.078218698E0,-6.011312008E0,4.542304516E0,-1.178577423E0,7.626103010E0
2.080624844E0,-5.985044479E0,4.674861908E0,-1.391769290E0,7.720888099E0
2.083030208E0,-5.920903683E0,4.772600651E0,-1.612291455E0,7.773950162E0
2.085434687E0,-5.809726238E0,4.852623940E0,-1.856026411E0,7.793953560E0
2.087840104E0,-5.545832634E0,4.943031788E0,-2.140078545E0,7.731090417E0
2.090246198E0,-4.889153481E0,5.028553009E0,-2.472388983E0,7.436590240E0
2.092651562E0,-4.147563457E0,4.870338917E0,-2.802866697E0,6.984163910E0
2.095056094E0,-3.717514515E0,4.228930950E0,-3.085086346E0,6.420399435E0
2.097461458E0,-3.482942581E0,2.960775375E0,-3.322712660E0,5.651327213E0
2.099867604E0,-3.115812778E0,1.455604911E0,-3.513302326E0,4.916336864E0
2.102272865E0,-2.535491228E0,2.595317662E-1,-3.629366636E0,4.434904135E0
2.104677448E0,-1.960056782E0,-7.062453628E-1,-3.683122873E0,4.231548086E0
2.107082865E0,-1.449373960E0,-1.538243055E0,-3.692896605E0,4.254922080E0
2.109488958E0,-1.007718682E0,-2.171710014E0,-3.653190374E0,4.367793635E0
2.111894323E0,-6.234847903E-1,-2.558998108E0,-3.562171698E0,4.430154828E0
2.114298854E0,-2.783462107E-1,-2.789905071E0,-3.446107388E0,4.442600933E0
2.116704219E0,2.081058919E-4,-2.885200024E0,-3.333708286E0,4.408853610E0
2.119110365E0,2.121781707E-1,-2.874815226E0,-3.218865633E0,4.320958010E0
2.121515625E0,4.381981194E-1,-2.846104622E0,-3.086918831E0,4.221539646E0
2.123920208E0,6.636071801E-1,-2.736148834E0,-2.893885612E0,4.037506516E0
2.126325625E0,9.549896717E-1,-2.508907318E0,-2.543249130E0,3.697936904E0
2.128731719E0,1.229267836E0,-2.161325216E0,-1.987362385E0,3.183085822E0
2.131137083E0,1.467505097E0,-2.103293180E0,-1.376497626E0,2.910697361E0
2.133541615E0,1.588456273E0,-2.510128975E0,-9.354532957E-1,3.114323951E0
2.135946979E0,1.680696845E0,-2.807009220E0,-5.335043073E-1,3.314916212E0
2.138353125E0,1.852960706E0,-2.929182291E0,-3.931477666E-2,3.466283013E0
2.140758385E0,1.993459582E0,-3.295090199E0,4.768659174E-1,3.880580063E0
2.143162969E0,2.070428610E0,-3.590137720E0,7.065510750E-1,4.204161973E0
2.145568385E0,2.144343376E0,-3.695206642E0,5.721608400E-1,4.310467338E0
2.147974479E0,2.190768957E0,-3.626789570E0,3.754623532E-1,4.253709344E0
2.150379844E0,2.162058353E0,-3.405045748E0,3.100998402E-1,4.045367076E0
2.152784323E0,2.027668238E0,-3.051965952E0,3.522495031E-1,3.681034415E0
2.155189740E0,1.785765648E0,-2.530287504E0,4.139468372E-1,3.124526490E0
2.157595885E0,1.457120419E0,-1.851005793E0,4.451009333E-1,2.397402177E0
2.160001146E0,1.093655944E0,-1.097809672E0,4.426575005E-1,1.611587746E0
2.162405729E0,7.393544316E-1,-3.733240962E-1,4.206663668E-1,9.289650416E-1
2.164811146E0,4.290351570E-1,2.656404078E-1,3.815710247E-1,6.326392645E-1
2.167217240E0,1.846892536E-1,7.946493030E-1,3.302583694E-1,8.801410260E-1
2.169622604E0,3.262429498E-3,1.213702440E0,2.661175728E-1,1.242538860E0
2.172027083E0,-1.347929984E-1,1.535017371E0,1.915920824E-1,1.552789428E0
2.174432500E0,-2.368074059E-1,1.787915349E0,1.097362116E-1,1.806864986E0
2.176838646E0,-3.052242398E-1,1.991944194E0,2.482601628E-2,2.015346084E0
2.179243906E0,-3.516499698E-1,2.156266689E0,-6.069504470E-2,2.185595485E0
2.181648490E0,-3.785280287E-1,2.285769939E0,-1.468269676E-1,2.321548156E0
2.184053854E0,-3.901344538E-1,2.379842997E0,-2.323480248E-1,2.422775925E0
2.186460000E0,-3.828040659E-1,2.439096928E0,-3.080952466E-1,2.488102783E0
2.188865365E0,-3.608129323E-1,2.470251083E0,-3.722360432E-1,2.524061421E0
2.191269844E0,-3.180524111E-1,2.520952940E0,-4.198834896E-1,2.575395738E0
2.193675260E0,-2.569659352E-1,2.586926222E0,-4.485941529E-1,2.638077990E0
2.196081406E0,-1.867164969E-1,2.618080378E0,-4.675309360E-1,2.666044465E0
2.198486667E0,-1.109692752E-1,2.604641438E0,-4.766939282E-1,2.650227971E0
2.200891250E0,-2.850253694E-2,2.562491655E0,-4.754721820E-1,2.606386325E0
2.203296615E0,6.129457802E-2,2.491631269E0,-4.687526822E-1,2.536082113E0
2.205702760E0,1.608655304E-1,2.389616966E0,-4.559245110E-1,2.438034890E0
2.208108125E0,2.573821545E-1,2.268054962E0,-4.406529069E-1,2.324756733E0
2.210512604E0,3.404597640E-1,2.127556086E0,-4.327116609E-1,2.197645815E0
2.212918021E0,4.180395901E-1,1.978505015E0,-4.339333773E-1,2.068220823E0
2.215324167E0,4.858455658E-1,1.844114900E0,-4.314899147E-1,1.955246589E0
2.217729427E0,5.536515713E-1,1.718276739E0,-4.137748480E-1,1.852083864E0
2.220134010E0,6.147380471E-1,1.609542847E0,-3.820098937E-1,1.764784010E0
2.222539375E0,6.636071801E-1,1.510582685E0,-3.349733055E-1,1.683580011E0
2.224945521E0,6.959830523E-1,1.415287852E0,-2.775520086E-1,1.601395401E0
2.227350885E0,7.124763727E-1,1.326712489E0,-2.140220851E-1,1.521050316E0
2.229755365E0,7.179741859E-1,1.244245768E0,-1.419400573E-1,1.443530894E0
2.232160781E0,7.124763727E-1,1.175217986E0,-6.741455197E-2,1.375974062E0
2.234566875E0,7.051460147E-1,1.126348853E0,7.721805014E-3,1.328891368E0
2.236972240E0,6.990373731E-1,1.109855533E0,7.980383933E-2,1.314078082E0
2.239376771E0,6.947612762E-1,1.123905420E0,1.500532925E-1,1.329801720E0
2.241782135E0,6.886526346E-1,1.157502890E0,2.129723579E-1,1.363602807E0
2.244188281E0,6.813222766E-1,1.207593799E0,2.673393190E-1,1.412074056E0
2.246593646E0,6.709375978E-1,1.266847730E0,3.149867654E-1,1.467745582E0
2.248998125E0,6.581094265E-1,1.314495206E0,3.522495031E-1,1.511649885E0
2.251403542E0,6.422269344E-1,1.325490713E0,3.797384202E-1,1.521046460E0
2.253809635E0,6.202358007E-1,1.302888751E0,3.980643749E-1,1.496885698E0
2.256215000E0,5.903034210E-1,1.272956371E0,4.102816582E-1,1.461918976E0
2.258619531E0,5.475429296E-1,1.263793349E0,4.286076128E-1,1.442456715E0
2.261024896E0,4.864564240E-1,1.284562826E0,4.585399628E-1,1.448102346E0
2.263431042E0,4.168178439E-1,1.330377698E0,5.055766106E-1,1.482986731E0
2.265836302E0,3.361836970E-1,1.399405360E0,5.666630268E-1,1.546758490E0
2.268240885E0,2.500517964E-1,1.488591552E0,6.454645991E-1,1.641662346E0
2.270646302E0,1.620872617E-1,1.610153675E0,7.407594919E-1,1.779772953E0
2.273052396E0,7.473360002E-2,1.762259007E0,8.537694812E-1,1.959608186E0
2.275457760E0,-1.384178270E-2,1.938798904E0,9.863271117E-1,2.175310083E0
2.277862292E0,-1.042497605E-1,2.132442951E0,1.139654160E0,2.420122426E0
2.280267656E0,-1.983229220E-1,2.329752207E0,1.308863640E0,2.679589773E0
2.282673802E0,-3.003373444E-1,2.516065836E0,1.491512299E0,2.940305894E0
2.285079062E0,-4.102929831E-1,2.675501585E0,1.679658532E0,3.185577161E0
2.287483646E0,-5.220811963E-1,2.815389633E0,1.862918019E0,3.416057832E0
2.289889062E0,-6.369237900E-1,2.946725607E0,2.021742821E0,3.629918422E0
2.292295156E0,-7.481011748E-1,3.057291985E0,2.161630869E0,3.818289887E0
2.294700521E0,-8.488938212E-1,3.146478415E0,2.291744947E0,3.984098648E0
2.297105052E0,-9.429669976E-1,3.226501703E0,2.407809258E0,4.134857364E0
2.299510417E0,-1.025433779E0,3.292474985E0,2.506769419E0,4.263308443E0
2.301916562E0,-1.096904993E0,3.340733290E0,2.589847088E0,4.367036457E0
2.304321823E0,-1.152493715E0,3.365167856E0,2.652155161E0,4.436949793E0
2.306726406E0,-1.191588998E0,3.360280991E0,2.691861391E0,4.467380712E0
2.309131823E0,-1.203195453E0,3.326683521E0,2.713241577E0,4.458271235E0
2.311537917E0,-1.194643378E0,3.274760008E0,2.714463472E0,4.418092106E0
2.313943281E0,-1.169597864E0,3.197790861E0,2.698580980E0,4.344670858E0
2.316347812E0,-1.128669977E0,3.087835312E0,2.669259310E0,4.234804375E0
2.318753177E0,-1.074303031E0,2.951001644E0,2.625277281E0,4.093240587E0
2.321159323E0,-1.012605667E0,2.786068201E0,2.564801455E0,3.919917443E0
2.323564583E0,-9.405235648E-1,2.608917475E0,2.495773792E0,3.730941140E0
2.325969167E0,-8.562242389E-1,2.429323196E0,2.413307190E0,3.529700091E0
2.328374583E0,-7.572641373E-1,2.260113716E0,2.320455551E0,3.326571350E0
2.330780677E0,-6.521953940E-1,2.119003773E0,2.217830420E0,3.135969960E0
2.333186042E0,-5.410180092E-1,2.005993843E0,2.107263803E0,2.959268917E0
2.335590521E0,-4.280080497E-1,1.925359845E0,1.995475531E0,2.805730567E0
2.337995937E0,-3.143872321E-1,1.874658108E0,1.881854773E0,2.674800878E0
2.340402083E0,-1.989337802E-1,1.854499578E0,1.769455671E0,2.570936932E0
2.342807344E0,-8.225863427E-2,1.855721354E0,1.663165212E0,2.493308394E0
2.345211927E0,3.136220574E-2,1.861829996E0,1.564205170E0,2.431898915E0
2.347617344E0,1.339874864E-1,1.872214675E0,1.473186255E0,2.386088468E0
2.350023437E0,2.311149836E-1,1.875879884E0,1.397439122E0,2.350569202E0
2.352428802E0,3.282424808E-1,1.860608220E0,1.342461228E0,2.317716166E0
2.354833281E0,4.198721647E-1,1.813571692E0,1.309474587E0,2.275974211E0
2.357238698E0,5.047823787E-1,1.720109344E0,1.305198550E0,2.217459055E0
2.359644844E0,5.945794582E-1,1.577777863E0,1.335741758E0,2.151072700E0
2.362050104E0,6.843765974E-1,1.367640376E0,1.390108705E0,2.066691495E0
2.364454687E0,7.790606022E-1,1.067705870E0,1.420651913E0,1.940407973E0
2.366860052E0,8.676360250E-1,7.097390890E-1,1.360787153E0,1.763026807E0
2.369266198E0,9.653743505E-1,2.870206833E-1,1.261216283E0,1.613999697E0
2.371671562E0,1.077773452E0,-1.809017062E-1,1.155536652E0,1.590467225E0
2.374076042E0,1.203000665E0,-6.402719617E-1,1.041915774E0,1.715443752E0
2.376481458E0,1.341666937E0,-1.073985934E0,9.197428823E-1,1.949215977E0
2.378887604E0,1.485831022E0,-1.460052371E0,7.994025350E-1,2.231253272E0
2.381292865E0,1.631216884E0,-1.792362809E0,6.912794709E-1,2.520178618E0
2.383697448E0,1.770493984E0,-2.080691099E0,5.929302573E-1,2.795619911E0
2.386102812E0,1.902440786E0,-2.322593451E0,5.025222301E-1,3.044051556E0
2.388508958E0,2.027057409E0,-2.525400639E0,4.176120460E-1,3.265120204E0
2.390914323E0,2.149230242E0,-2.695220947E0,3.369778991E-1,3.463662901E0
2.393318802E0,2.273846626E0,-2.838163376E0,2.618415356E-1,3.646108997E0
2.395724219E0,2.405793428E0,-2.937123537E0,1.946464032E-1,3.801634374E0
2.398130365E0,2.543237925E0,-2.989657879E0,1.415011734E-1,3.927611992E0
2.400535625E0,2.684347868E0,-3.025698900E0,9.629718959E-2,4.045967185E0
2.402940208E0,2.824846745E0,-3.045857430E0,6.880827993E-2,4.154725164E0
2.405345573E0,2.967788935E0,-3.050744295E0,6.819741428E-2,4.256696231E0
2.407751719E0,3.111342192E0,-3.033029079E0,9.079940617E-2,4.346028090E0
2.410157083E0,3.254284620E0,-3.001875162E0,1.311164796E-1,4.429313086E0
2.412561562E0,3.400281191E0,-2.962168932E0,1.757096052E-1,4.513006850E0
2.414966979E0,3.544445276E0,-2.917575836E0,2.203027308E-1,4.596071624E0
2.417373125E0,3.690441847E0,-2.872371674E0,2.600089312E-1,4.683746866E0
2.419778385E0,3.839493036E0,-2.831443787E0,2.887195647E-1,4.779345110E0
2.422182969E0,3.983657122E0,-2.788683176E0,3.088781238E-1,4.872543855E0
2.424588333E0,4.124155521E0,-2.752031326E0,3.217062652E-1,4.968483683E0
2.426994479E0,4.258545876E0,-2.723320723E0,3.253714740E-1,5.065328748E0
2.429399844E0,4.386216640E0,-2.711103439E0,3.186519444E-1,5.166286610E0
2.431804323E0,4.501059055E0,-2.716601372E0,3.027694523E-1,5.266035033E0
2.434209740E0,4.609793186E0,-2.744090080E0,2.740588188E-1,5.371715911E0
2.436615833E0,4.711807728E0,-2.796013594E0,2.355743498E-1,5.484005776E0
2.439021198E0,4.800993919E0,-2.866873980E0,1.891486347E-1,5.595023345E0
2.441425729E0,4.879184246E0,-2.948729753E0,1.384468526E-1,5.702684771E0
2.443831094E0,4.956764221E0,-3.033640146E0,7.980383933E-2,5.811957737E0
2.446237240E0,5.034344196E0,-3.100835085E0,1.871737093E-2,5.912710888E0
2.448642604E0,5.112535000E0,-3.142984867E0,-4.359083250E-2,6.001522154E0
2.451047083E0,5.195001602E0,-3.155812979E0,-1.052881703E-1,6.079332431E0
2.453452500E0,5.280522346E0,-3.130767584E0,-1.682072282E-1,6.141165654E0
2.455858594E0,5.364821911E0,-3.073346138E0,-2.256285250E-1,6.186895736E0
2.458263958E0,5.443623543E0,-2.982938290E0,-2.757194340E-1,6.213451482E0
2.460668490E0,5.397808552E0,-3.176582336E0,-3.166473508E-1,6.271146470E0
2.463073854E0,4.725246429E0,-4.848518848E0,-3.410819471E-1,6.778821855E0
2.465480000E0,3.833384275E0,-7.043355942E0,-3.471905887E-1,8.026471157E0
2.467885260E0,3.262836695E0,-8.562577248E0,-4.119422734E-1,9.172433093E0
2.470289844E0,3.025821209E0,-9.374416351E0,-5.597714782E-1,9.866540428E0
2.472695260E0,3.091794491E0,-9.497810364E0,-7.699089646E-1,1.001800153E1
2.475101354E0,3.334307909E0,-9.180771828E0,-1.026472092E0,9.821294494E0
2.477506719E0,3.611640453E0,-8.739727974E0,-1.292809129E0,9.544534942E0
2.479911250E0,3.795510769E0,-8.460562706E0,-1.518829107E0,9.396481531E0
2.482316615E0,3.810171366E0,-8.517983437E0,-1.688038588E0,9.482769740E0
2.484722760E0,3.675781250E0,-8.868009567E0,-1.804713845E0,9.767801879E0
2.487128125E0,3.458924294E0,-9.318827629E0,-1.872519732E0,1.011489178E1
2.489532604E0,3.217021704E0,-9.650527000E0,-1.899397850E0,1.034841110E1
2.491938021E0,2.942743540E0,-9.678015709E0,-1.874963284E0,1.028781876E1
2.494344115E0,2.513916492E0,-9.224754333E0,-1.805324674E0,9.730111295E0
2.496749479E0,1.961694717E0,-8.313344002E0,-1.740573049E0,8.717197324E0
2.499154010E0,1.526759028E0,-7.250439167E0,-1.712473273E0,7.604763373E0
2.501559375E0,1.203611493E0,-6.285272598E0,-1.720414519E0,6.626700414E0
2.503965521E0,8.700794578E-1,-5.387301445E0,-1.739962101E0,5.727785195E0
2.506370781E0,4.595783949E-1,-4.174124241E0,-1.733242631E0,4.542978703E0
2.508775365E0,4.724469036E-2,-2.239516020E0,-1.665436625E0,2.791297766E0
2.511180781E0,-3.485956490E-1,1.037612632E-1,-1.545096278E0,1.587327262E0
2.513586875E0,-6.827386618E-1,1.778752327E0,-1.438805819E0,2.387520493E0
2.515992240E0,-9.460213184E-1,2.443983793E0,-1.402764797E0,2.972501000E0
2.518396771E0,-1.175706506E0,2.652899742E0,-1.403375626E0,3.223294274E0
2.520802135E0,-1.370572329E0,2.729868650E0,-1.408873439E0,3.363863214E0
2.523208281E0,-1.514736414E0,2.731090307E0,-1.419869065E0,3.430642627E0
2.525613542E0,-1.620416045E0,2.693827629E0,-1.440027595E0,3.457764441E0
2.528018125E0,-1.690665483E0,2.637628078E0,-1.468738198E0,3.460147909E0
2.530423542E0,-1.732204318E0,2.583871841E0,-1.503557444E0,3.455084728E0
2.532829635E0,-1.746865034E0,2.552717924E0,-1.541431069E0,3.455997105E0
2.535235000E0,-1.740145564E0,2.560659170E0,-1.582969904E0,3.477193651E0
2.537639479E0,-1.718765259E0,2.622356415E0,-1.628173947E0,3.532967249E0
2.540044896E0,-1.680891633E0,2.729257822E0,-1.672767043E0,3.615576651E0
2.542451042E0,-1.627135515E0,2.878919601E0,-1.722247005E0,3.728522871E0
2.544856302E0,-1.563605666E0,3.046296597E0,-1.777224898E0,3.857889834E0
2.547260885E0,-1.495799661E0,3.228334188E0,-1.840754867E0,4.005987611E0
2.549666250E0,-1.424328446E0,3.407928467E0,-1.911615133E0,4.158961454E0
2.552072396E0,-1.346137762E0,3.584468365E0,-1.991027474E0,4.315633295E0
2.554477760E0,-1.261838436E0,3.756732225E0,-2.075937748E0,4.473789309E0
2.556882240E0,-1.172041297E0,3.950987101E0,-2.165734768E0,4.655575899E0
2.559287656E0,-1.075524688E0,4.167233467E0,-2.260418892E0,4.861283955E0
2.561693802E0,-9.710667729E-1,4.391420841E0,-2.358157158E0,5.078233242E0
2.564099062E0,-8.592785597E-1,4.627214432E0,-2.462004185E0,5.311396958E0
2.566503646E0,-7.438251376E-1,4.872171402E0,-2.570127249E0,5.558496567E0
2.568909062E0,-6.228739023E-1,5.126902103E0,-2.680083036E0,5.818585924E0
2.571315156E0,-4.982574880E-1,5.379799843E0,-2.791260242E0,6.081253211E0
2.573720521E0,-3.693650365E-1,5.635752201E0,-2.904270411E0,6.350820421E0
2.576125000E0,-2.349748015E-1,5.883152485E0,-3.021556377E0,6.617892358E0
2.578530417E0,-9.936284274E-2,6.128109455E0,-3.140674829E0,6.886758080E0
2.580936562E0,3.014047630E-2,6.354740143E0,-3.262237072E0,7.143236063E0
2.583341823E0,1.572003514E-1,6.522117138E0,-3.384409904E0,7.349622733E0
2.585746406E0,2.641016841E-1,6.590533733E0,-3.495587349E0,7.464852008E0
2.588151823E0,3.319076598E-1,6.497071743E0,-3.591493130E0,7.431078443E0
2.590557917E0,3.593965769E-1,6.192861080E0,-3.664186001E0,7.204648035E0
2.592963281E0,3.288533390E-1,5.681567192E0,-3.709389925E0,6.793226324E0
2.595367760E0,2.586039007E-1,4.981516361E0,-3.733824492E0,6.230876870E0
2.597773177E0,1.614764035E-1,4.170898914E0,-3.738100529E0,5.603201580E0
2.600179323E0,8.145311475E-2,3.362113476E0,-3.727715969E0,5.020588410E0
2.602584583E0,3.014047630E-2,2.653510571E0,-3.712444305E0,4.563361647E0
2.604989167E0,3.197307140E-2,2.103732347E0,-3.700837851E0,4.257101463E0
2.607394531E0,8.145311475E-2,1.729883194E0,-3.705113888E0,4.089865450E0
2.609800677E0,1.761371493E-1,1.524632573E0,-3.725883245E0,4.029607268E0
2.612206042E0,3.129708469E-1,1.455604911E0,-3.758259058E0,4.042430897E0
2.614610521E0,4.742391407E-1,1.488591552E0,-3.798576355E0,4.107309325E0
2.617015937E0,6.477246881E-1,1.596714616E0,-3.849277973E0,4.217343447E0
2.619422083E0,8.334276080E-1,1.759815574E0,-3.921970844E0,4.378744995E0
2.621827344E0,1.014243484E0,1.985835433E0,-4.023374557E0,4.599975548E0
2.624231927E0,1.186507344E0,2.188031673E0,-4.132108688E0,4.823857843E0
2.626637292E0,1.333725691E0,2.336471796E0,-4.233511925E0,5.016029096E0
2.629043437E0,1.449790001E0,2.454979420E0,-4.334304810E0,5.187968117E0
2.631448802E0,1.565243483E0,2.552717924E0,-4.439984322E0,5.355354025E0
2.633853281E0,1.681918621E0,2.655343056E0,-4.550550938E0,5.530570570E0
2.636258698E0,1.793706894E0,2.756746531E0,-4.665393353E0,5.708146020E0
2.638664792E0,1.906716824E0,2.798896313E0,-4.779014587E0,5.857334722E0
2.641070156E0,2.039274693E0,2.513011694E0,-4.843155384E0,5.824948336E0
2.643474687E0,2.196877718E0,1.722552776E0,-4.827883720E0,5.576909627E0
2.645880052E0,2.354480743E0,9.882934093E-1,-4.793674946E0,5.431355532E0
2.648286198E0,2.466269016E0,6.572047472E-1,-4.777792454E0,5.416798101E0
2.650691562E0,2.535907745E0,5.869552493E-1,-4.758244991E0,5.423674027E0
2.653096042E0,2.590885401E0,5.564120412E-1,-4.698991299E0,5.394701173E0
2.655501458E0,2.654415369E0,4.702800810E-1,-4.595755100E0,5.328043660E0
2.657907552E0,2.720999718E0,3.963654637E-1,-4.458921432E0,5.238599563E0
2.660312917E0,2.779031754E0,4.036958218E-1,-4.309870243E0,5.144022678E0
2.662717448E0,2.833398819E0,4.684474766E-1,-4.158375740E0,5.053679917E0
2.665122812E0,2.898150444E0,5.283122659E-1,-4.006270409E0,4.972785179E0
2.667528958E0,2.986114979E0,5.570229292E-1,-3.860884428E0,4.912594607E0
2.669934323E0,3.104622602E0,6.010051966E-1,-3.727105141E0,4.887862670E0
2.672338802E0,3.253673792E0,7.182911634E-1,-3.604932070E0,4.908958196E0
2.674744219E0,3.434489727E0,9.241526127E-1,-3.497419834E0,4.988158301E0
2.677150312E0,3.642183542E0,1.215535045E0,-3.405179262E0,5.132082638E0
2.679555677E0,3.870036125E0,1.559451938E0,-3.325767040E0,5.335709546E0
2.681960208E0,4.123544693E0,1.935744524E0,-3.261626244E0,5.602582748E0
2.684365573E0,4.391714573E0,2.313258886E0,-3.212756872E0,5.912709217E0
2.686771719E0,4.666603565E0,2.650456190E0,-3.174883366E0,6.235542578E0
2.689176979E0,4.944547176E0,2.943671227E0,-3.152892351E0,6.561591061E0
2.691581562E0,5.218214512E0,3.184962749E0,-3.143118382E0,6.874077652E0
2.693986979E0,5.481497288E0,3.375552654E0,-3.141285896E0,7.163019288E0
2.696393073E0,5.729507923E0,3.510553598E0,-3.145561934E0,7.419286184E0
2.698798437E0,5.951251984E0,3.577137947E0,-3.154114008E0,7.626385201E0
2.701202917E0,6.140009403E0,3.565531492E0,-3.164498568E0,7.773466503E0
2.703608333E0,6.292725563E0,3.466571569E0,-3.182824612E0,7.857855049E0
2.706014479E0,6.408789635E0,3.307135820E0,-3.213978767E0,7.895529839E0
2.708419740E0,6.492478371E0,3.134871960E0,-3.255517483E0,7.910631560E0
2.710824323E0,6.566392899E0,3.018807650E0,-3.311717033E0,7.949728614E0
2.713229740E0,6.647637844E0,2.996205568E0,-3.377079487E0,8.035732859E0
2.715635833E0,6.740489483E0,3.057291985E0,-3.442442179E0,8.162820646E0
2.718041198E0,6.834562302E0,3.148310900E0,-3.502306938E0,8.299955257E0
2.720445677E0,6.923137665E0,3.229555845E0,-3.562171698E0,8.429052929E0
2.722851094E0,6.990943909E0,3.279646873E0,-3.620203733E0,8.528496668E0
2.725257240E0,7.027595520E0,3.285144567E0,-3.673959732E0,8.583545522E0
2.727662500E0,7.033704281E0,3.241162300E0,-3.725883245E0,8.594203565E0
2.730067083E0,7.007437229E0,3.161750078E0,-3.775363445E0,8.564707188E0
2.732472500E0,6.953680992E0,3.051794291E0,-3.820567369E0,8.500815417E0
2.734878594E0,6.873657703E0,2.910684586E0,-3.860273600E0,8.403628219E0
2.737283958E0,6.773476124E0,2.754303217E0,-3.892038584E0,8.283364615E0
2.739688437E0,6.650081158E0,2.583871841E0,-3.909753561E0,8.135486833E0
2.742093854E0,6.510193348E0,2.406110287E0,-3.910364389E0,7.966362645E0
2.744500000E0,6.353200912E0,2.233235598E0,-3.888984203E0,7.776548155E0
2.746905260E0,6.181548119E0,2.062193394E0,-3.843780279E0,7.565634512E0
2.749309844E0,5.996456146E0,1.896038413E0,-3.774752617E0,7.334930490E0
2.751715260E0,5.794870853E0,1.721941948E0,-3.684344530E0,7.079548495E0
2.754121354E0,5.580457211E0,1.547234654E0,-3.578665018E0,6.807516512E0
2.756526719E0,5.358713150E0,1.385966301E0,-3.469320059E0,6.532449072E0
2.758931198E0,5.133304119E0,1.237526178E0,-3.355699301E0,6.256436687E0
2.761336615E0,4.899343014E0,1.087864399E0,-3.231082916E0,5.968828003E0
2.763742760E0,4.653164387E0,9.418677092E-1,-3.099746943E0,5.669875193E0
2.766148021E0,4.398434162E0,8.141969442E-1,-2.963524103E0,5.365781849E0
2.768552604E0,4.137594700E0,7.097390890E-1,-2.821192741E0,5.057919331E0
2.770958021E0,3.871868849E0,6.315484047E-1,-2.680083036E0,4.751112170E0
2.773364115E0,3.601255655E0,5.735162497E-1,-2.534697056E0,4.441019292E0
2.775769479E0,3.329420805E0,5.270905495E-1,-2.383202791E0,4.128259063E0
2.778173958E0,3.047201395E0,4.892168939E-1,-2.228043079E0,3.806434746E0
2.780579375E0,2.757040739E0,4.562301934E-1,-2.071050882E0,3.478314446E0
2.782985521E0,2.465047359E0,4.262978137E-1,-1.915891171E0,3.151004171E0
2.785390781E0,2.161447525E0,4.116370678E-1,-1.765618443E0,2.821118389E0
2.787795365E0,1.801648140E0,5.338100195E-1,-1.618400097E0,2.479941135E0
2.790200729E0,1.338001847E0,8.881115913E-1,-1.470570803E0,2.177514553E0
2.792606875E0,8.474774957E-1,1.255241275E0,-1.322741508E0,2.010844067E0
2.795012240E0,4.369763732E-1,1.460491776E0,-1.204844594E0,1.943099348E0
2.797416719E0,1.199375913E-1,1.575945258E0,-1.133984327E0,1.945227220E0
2.799822135E0,-1.292952150E-1,1.693842173E0,-1.089391232E0,2.018066355E0
2.802228281E0,-3.339349031E-1,1.852666974E0,-1.052739263E0,2.156883722E0
2.804633542E0,-5.153617263E-1,2.064026117E0,-1.027693868E0,2.362616390E0
2.807038125E0,-6.839603782E-1,2.308982849E0,-1.011811376E0,2.612080752E0
2.809443490E0,-8.440069556E-1,2.560659170E0,-1.004481077E0,2.877204435E0
2.811849635E0,-9.997774363E-1,2.806837559E0,-1.006924510E0,3.145121456E0
2.814255000E0,-1.146385074E0,3.052405119E0,-1.020974398E0,3.416689109E0
2.816659479E0,-1.282607913E0,3.296751022E0,-1.052128434E0,3.690613039E0
2.819064896E0,-1.410889506E0,3.544762135E0,-1.107106328E0,3.972610252E0
2.821471042E0,-1.525121212E0,3.793994904E0,-1.186518669E0,4.257724579E0
2.823876302E0,-1.628968120E0,4.024901867E0,-1.278148413E0,4.526260657E0
2.826280885E0,-1.718154430E0,4.220378876E0,-1.380162835E0,4.761145025E0
2.828686250E0,-1.802453756E0,4.365764618E0,-1.483398914E0,4.950677992E0
2.831092396E0,-1.884920478E0,4.452507496E0,-1.579304695E0,5.086447830E0
2.833497760E0,-1.965554595E0,4.489159107E0,-1.666658401E0,5.176263574E0
2.835902240E0,-2.043745279E0,4.495267868E0,-1.739351273E0,5.235424608E0
2.838307656E0,-2.123768568E0,4.485494137E0,-1.796161652E0,5.277901786E0
2.840713750E0,-2.201348305E0,4.472665787E0,-1.830981016E0,5.310665220E0
2.843119115E0,-2.278317213E0,4.464113712E0,-1.849917769E0,5.342399865E0
2.845523646E0,-2.357729673E0,4.459227085E0,-1.853582978E0,5.373952481E0
2.847929010E0,-2.438363791E0,4.454339981E0,-1.842587352E0,5.402026545E0
2.850335156E0,-2.522663116E0,4.442733288E0,-1.817541957E0,5.422653136E0
2.852740417E0,-2.611238480E0,4.427462101E0,-1.780890107E0,5.439904101E0
2.855145000E0,-2.702257395E0,4.420131683E0,-1.735075235E0,5.463537791E0
2.857550417E0,-2.789000034E0,4.426239967E0,-1.684984326E0,5.496298174E0
2.859956510E0,-2.875742912E0,4.439068317E0,-1.624508739E0,5.533014862E0
2.862361875E0,-2.961874962E0,4.449452877E0,-1.552426696E0,5.566000614E0
2.864766406E0,-3.048006773E0,4.447620392E0,-1.466905594E0,5.587797818E0
2.867171771E0,-3.134749651E0,4.440900803E0,-1.372832417E0,5.606507305E0
2.869577917E0,-3.223935843E0,4.421964169E0,-1.272039771E0,5.618328453E0
2.871983177E0,-3.310678720E0,4.390810013E0,-1.166360140E0,5.621405708E0
2.874387760E0,-3.393756151E0,4.351103783E0,-1.060680509E0,5.619139443E0
2.876793177E0,-3.471946955E0,4.307732582E0,-9.586661458E-1,5.615159520E0
2.879199271E0,-3.548915863E0,4.267415524E0,-8.603169322E-1,5.616563387E0
2.881604635E0,-3.617943525E0,4.230152607E0,-7.699089646E-1,5.619294106E0
2.884009115E0,-3.682695150E0,4.191057205E0,-6.856096387E-1,5.621144425E0
2.886414531E0,-3.743170738E0,4.153794289E0,-6.098623872E-1,5.624701441E0
2.888820677E0,-3.796316147E0,4.122640610E0,-5.420564413E-1,5.630453540E0
2.891225937E0,-3.847017765E0,4.095151424E0,-4.834134281E-1,5.639459142E0
2.893630521E0,-3.888556719E0,4.068884373E0,-4.339333773E-1,5.644908464E0
2.896035937E0,-3.916656494E0,4.029178143E0,-3.936163187E-1,5.632886330E0
2.898442031E0,-3.928873777E0,3.985806704E0,-3.624622226E-1,5.608393986E0
2.900847396E0,-3.925208569E0,3.928385258E0,-3.404710889E-1,5.563757148E0
2.903251875E0,-3.902606487E0,3.849583626E0,-3.245885968E-1,5.491355866E0
2.905657292E0,-3.858624220E0,3.747569323E0,-3.148147762E-1,5.388168988E0
2.908063437E0,-3.789596558E0,3.622952938E0,-3.135930300E-1,5.252158666E0
2.910468698E0,-3.693079948E0,3.466571569E0,-3.178690970E-1,5.075135340E0
2.912873281E0,-3.564187527E0,3.278425217E0,-3.264212012E-1,4.853664124E0
2.915278698E0,-3.403530121E0,3.063400745E0,-3.392493427E-1,4.591680687E0
2.917684792E0,-3.216605425E0,2.828828573E0,-3.557426929E-1,4.298299015E0
2.920090156E0,-3.007078886E0,2.597311020E0,-3.740686476E-1,3.991049400E0
2.922494635E0,-2.779837132E0,2.380454063E0,-3.942271769E-1,3.680960621E0
2.924900052E0,-2.538545609E0,2.188031673E0,-4.174400270E-1,3.377269990E0
2.927306198E0,-2.285647631E0,2.028595924E0,-4.406529069E-1,3.087646596E0
2.929711458E0,-2.019921541E0,1.902757883E0,-4.644766152E-1,2.813593631E0
2.932116042E0,-1.740756392E0,1.812960744E0,-4.895220697E-1,2.560603705E0
2.934521458E0,-1.454260826E0,1.747598290E0,-5.164000988E-1,2.331446632E0
2.936927552E0,-1.157991409E0,1.709724665E0,-5.426672697E-1,2.135085548E0
2.939332917E0,-8.574459553E-1,1.685900927E0,-5.677127242E-1,1.974784352E0
2.941737396E0,-5.520135760E-1,1.671240211E0,-5.903147459E-1,1.856403601E0
2.944142812E0,-2.453595102E-1,1.662688017E0,-6.068080664E-1,1.786882414E0
2.946548958E0,5.885111541E-2,1.658411980E0,-6.190253496E-1,1.771153898E0
2.948954219E0,3.569531143E-1,1.655357718E0,-6.226905584E-1,1.804263903E0
2.951358802E0,6.446703672E-1,1.641918659E0,-6.116949916E-1,1.866994250E0
2.953764167E0,9.116182923E-1,1.615651488E0,-5.799300075E-1,1.943629712E0
2.956170312E0,1.150466323E0,1.585108280E0,-5.310608745E-1,2.029326655E0
2.958575677E0,1.360603809E0,1.560673594E0,-4.602005780E-1,2.121020831E0
2.960980156E0,1.535921931E0,1.550288916E0,-3.728469312E-1,2.213925639E0
2.963385573E0,1.679475188E0,1.553954124E0,-2.744976878E-1,2.304508475E0
2.965791719E0,1.788209081E0,1.570447445E0,-1.688181013E-1,2.385895313E0
2.968196979E0,1.863345504E0,1.583275676E0,-5.886244774E-2,2.445870626E0
2.970601562E0,1.901219010E0,1.585719109E0,4.559541866E-2,2.476129592E0
2.973006927E0,1.903662562E0,1.562506199E0,1.421120465E-1,2.466891284E0
2.975413073E0,1.876784444E0,1.514858842E0,2.270222455E-1,2.422530962E0
2.977818437E0,1.818752289E0,1.447663665E0,2.929956317E-1,2.342954634E0
2.980222917E0,1.733231306E0,1.367640376E0,3.369778991E-1,2.233402128E0
2.982628333E0,1.629384279E0,1.290671468E0,3.565255702E-1,2.108989438E0
2.985034427E0,1.515763402E0,1.231417537E0,3.510277867E-1,1.984224873E0
2.987439792E0,1.394201398E0,1.200874329E0,3.241497278E-1,1.868413695E0
2.989844323E0,1.270195842E0,1.197209120E0,2.777239978E-1,1.767438195E0
2.992249687E0,1.146190286E0,1.207593799E0,2.148049474E-1,1.678742422E0
2.994655833E0,1.038067222E0,1.192322254E0,1.366142631E-1,1.586782711E0
2.997061198E0,9.482701421E-1,1.170941949E0,4.620628059E-2,1.507466859E0
2.999465677E0,8.633599877E-1,1.167276740E0,-4.297996685E-2,1.452505674E0
3.001871094E0,7.827258110E-1,1.174607158E0,-1.223923787E-1,1.416806820E0
3.004277187E0,7.045351267E-1,1.181937575E0,-1.895875037E-1,1.388988696E0
3.006682552E0,6.269553304E-1,1.181326628E0,-2.421218604E-1,1.359127876E0
3.009087083E0,5.530406833E-1,1.172774553E0,-2.854932547E-1,1.327689929E0
3.011492448E0,4.803477824E-1,1.156892061E0,-3.209234178E-1,1.293106753E0
3.013898594E0,4.149852693E-1,1.139176965E0,-3.545209765E-1,1.263179343E0
3.016303854E0,3.502335846E-1,1.111688018E0,-3.850642145E-1,1.227513039E0
3.018708437E0,2.860927880E-1,1.075646996E0,-4.162183106E-1,1.188319497E0
3.021113854E0,2.231737375E-1,1.032886505E0,-4.516484737E-1,1.149194237E0
3.023519948E0,1.645307243E-1,9.821847677E-1,-4.889112115E-1,1.109410406E0
3.025925312E0,1.101637557E-1,9.296503663E-1,-5.286173820E-1,1.075091714E0
3.028329844E0,5.579679459E-2,8.765051365E-1,-5.713779330E-1,1.047782076E0
3.030735208E0,5.705888383E-3,8.233599067E-1,-6.159710288E-1,1.028287120E0
3.033141354E0,-4.010896385E-2,7.738798857E-1,-6.562881470E-1,1.015486552E0
3.035546615E0,-8.409122378E-2,7.311193347E-1,-6.892747879E-1,1.008318674E0
3.037951198E0,-1.286843419E-1,6.895805597E-1,-7.100442052E-1,9.981201238E-1
3.040356615E0,-1.720557362E-1,6.474308968E-1,-7.143202424E-1,9.792973763E-1
3.042762708E0,-2.172597349E-1,5.961182714E-1,-6.959943175E-1,9.417891887E-1
3.045168073E0,-2.649071813E-1,5.270905495E-1,-6.507903337E-1,8.783668485E-1
3.047572552E0,-3.174415529E-1,4.550084770E-1,-5.835952163E-1,8.052237143E-1
3.049977969E0,-3.663107157E-1,3.890350759E-1,-5.005176067E-1,7.321541541E-1
3.052384115E0,-4.127364457E-1,3.346681297E-1,-4.040010273E-1,6.675110192E-1
3.054789375E0,-4.628273547E-1,2.864097953E-1,-2.989322841E-1,6.209671823E-1
3.057193958E0,-5.092530847E-1,2.454818785E-1,-1.883657724E-1,5.958873393E-1
3.059599323E0,-5.556787848E-1,2.149386406E-1,-7.535579801E-2,6.005464407E-1
3.062005469E0,-6.027153730E-1,1.947801113E-1,3.704331070E-2,6.344898104E-1
3.064410833E0,-6.485302448E-1,1.850062609E-1,1.482206881E-1,6.904984920E-1
3.066815312E0,-6.931233406E-1,1.905040443E-1,2.563437521E-1,7.631670036E-1
3.069220729E0,-7.383273244E-1,2.149386406E-1,3.601907492E-1,8.491544223E-1
3.071626875E0,-7.780335546E-1,2.576991618E-1,4.597617090E-1,9.397477848E-1
3.074032135E0,-8.122419715E-1,3.255051374E-1,5.556675196E-1,1.036560180E0
3.076436719E0,-8.452286720E-1,4.079718888E-1,6.509624124E-1,1.142192905E0
3.078842083E0,-8.769936562E-1,5.038776994E-1,7.462573051E-1,1.256944937E0
3.081248229E0,-9.081477523E-1,6.010051966E-1,8.433848023E-1,1.377402451E0
3.083653594E0,-9.386909604E-1,6.963000894E-1,9.405122399E-1,1.500179258E0
3.086058073E0,-9.698450565E-1,7.854863405E-1,1.035196304E0,1.621486853E0
3.088463490E0,-1.004664421E0,8.520705700E-1,1.129269481E0,1.735115101E0
3.090869635E0,-1.040094614E0,8.917768002E-1,1.220899224E0,1.835117866E0
3.093274896E0,-1.080411673E0,8.966636658E-1,1.305809379E0,1.917402734E0
3.095679479E0,-1.128669977E0,8.740617037E-1,1.380334854E0,1.985750258E0
3.098084844E0,-1.179371715E0,8.203055859E-1,1.442032218E0,2.035503823E0
3.100490990E0,-1.233738661E0,7.372279763E-1,1.490290523E0,2.070406244E0
3.102896354E0,-1.291159987E0,6.382679343E-1,1.523277164E0,2.096390561E0
3.105300833E0,-1.346137762E0,5.252579451E-1,1.537327051E0,2.109823984E0
3.107706250E0,-1.400504708E0,4.024741054E-1,1.537937999E0,2.118643937E0
3.110112344E0,-1.454260826E0,2.772468328E-1,1.525720716E0,2.125926635E0
3.112517708E0,-1.504962564E0,1.483543813E-1,1.507394671E0,2.135218967E0
3.114922240E0,-1.553220987E0,2.679231018E-2,1.482349277E0,2.147224404E0
3.117327604E0,-1.597203135E0,-9.049372375E-2,1.455471277E0,2.162786076E0
3.119733750E0,-1.639352918E0,-2.035036981E-1,1.431647539E0,2.185979510E0
3.122139115E0,-1.674172163E0,-3.079615533E-1,1.410267234E0,2.210553420E0
3.124543594E0,-1.703493714E0,-4.020347297E-1,1.394995570E0,2.238199142E0
3.126949010E0,-1.732815146E0,-4.906101227E-1,1.390108705E0,2.275027216E0
3.129355104E0,-1.757860661E0,-5.651355982E-1,1.394995570E0,2.314187760E0
3.131760469E0,-1.774964809E0,-6.231677532E-1,1.409045458E0,2.350371721E0
3.134165000E0,-1.782906055E0,-6.610413194E-1,1.431036592E0,2.379830951E0
3.136570365E0,-1.783516884E0,-6.738694906E-1,1.460968971E0,2.401970629E0
3.138976510E0,-1.775575638E0,-6.616522074E-1,1.500675201E0,2.417121956E0
3.141381771E0,-1.759082317E0,-6.237785816E-1,1.544657469E0,2.422692101E0
3.143786354E0,-1.727317333E0,-5.669682026E-1,1.593526602E0,2.417520453E0
3.146191771E0,-1.687000275E0,-4.997730851E-1,1.645450115E0,2.408993388E0
3.148597865E0,-1.641796350E0,-4.276910424E-1,1.702871442E0,2.403785771E0
3.151003229E0,-1.585596800E0,-3.543872833E-1,1.761514425E0,2.396380735E0
3.153407760E0,-1.522677660E0,-2.890247405E-1,1.821379185E0,2.391548597E0
3.155813125E0,-1.452428222E0,-2.322143316E-1,1.884298205E0,2.390408116E0
3.158219271E0,-1.378513575E0,-1.918972731E-1,1.952715158E0,2.397961786E0
3.160624531E0,-1.296046853E0,-1.668518186E-1,2.024186373E0,2.409337553E0
3.163029115E0,-1.208693266E0,-1.558562517E-1,2.099322557E0,2.427423692E0
3.165434531E0,-1.122561336E0,-1.631866246E-1,2.178735018E0,2.456350973E0
3.167840625E0,-1.027877331E0,-1.796799600E-1,2.258758307E0,2.488132991E0
3.170245990E0,-9.264736772E-1,-2.071688771E-1,2.336338043E0,2.521854054E0
3.172650469E0,-8.238484263E-1,-2.377121150E-1,2.414528847E0,2.562261273E0
3.175055885E0,-7.218340039E-1,-2.645901740E-1,2.487221718E0,2.603329438E0
3.177462031E0,-6.204304695E-1,-2.884138823E-1,2.556249380E0,2.646228907E0
3.179867292E0,-5.220811963E-1,-3.171245456E-1,2.616724968E0,2.687077653E0
3.182271875E0,-4.286189079E-1,-3.427808583E-1,2.672924519E0,2.728688030E0
3.184677292E0,-3.418761194E-1,-3.629393876E-1,2.723015547E0,2.768287909E0
3.187083385E0,-2.569659352E-1,-3.721023500E-1,2.766386986E0,2.803103388E0
3.189488750E0,-1.781643927E-1,-3.757675588E-1,2.801817179E0,2.832511838E0
3.191893229E0,-1.042497605E-1,-3.812653422E-1,2.835414648E0,2.862832077E0
3.194298646E0,-3.094599582E-2,-3.788218796E-1,2.862903595E0,2.888023661E0
3.196704792E0,3.747085482E-2,-3.745458126E-1,2.886727333E0,2.911165287E0
3.199110052E0,1.040551066E-1,-3.690480292E-1,2.907496691E0,2.932671294E0
3.201514635E0,1.663633138E-1,-3.647719920E-1,2.926433563E0,2.953768569E0
3.203920000E0,2.231737375E-1,-3.635502458E-1,2.945370197E0,2.976101628E0
3.206326146E0,2.750972509E-1,-3.733240962E-1,2.961252689E0,2.997343302E0
3.208731510E0,3.184686303E-1,-3.928717673E-1,2.973469973E0,3.016172106E0
3.211135990E0,3.575639725E-1,-4.148629010E-1,2.980189562E0,3.030097861E0
3.213541406E0,3.905506730E-1,-4.325779676E-1,2.978967905E0,3.035441204E0
3.215947552E0,4.137635231E-1,-4.307453632E-1,2.968583107E0,3.028073230E0
3.218352812E0,4.247590899E-1,-4.069216549E-1,2.945981026E0,3.004132108E0
3.220757396E0,4.241482317E-1,-3.641611338E-1,2.906275034E0,2.959552268E0
3.223162760E0,4.125418067E-1,-3.146810830E-1,2.847631931E0,2.894515943E0
3.225568906E0,3.954375982E-1,-2.719205320E-1,2.770663023E0,2.811918430E0
3.227974271E0,3.789442480E-1,-2.505402863E-1,2.679033279E0,2.717275932E0
3.230378750E0,3.667269349E-1,-2.487076819E-1,2.572742701E0,2.610622370E0
3.232784167E0,3.587856889E-1,-2.603141069E-1,2.455456734E0,2.495146965E0
3.235190312E0,3.538987935E-1,-2.780292034E-1,2.330229521E0,2.373291852E0
3.237595573E0,3.496227264E-1,-2.926899493E-1,2.200726271E0,2.247465144E0
3.240000156E0,3.429032266E-1,-3.042963743E-1,2.068779469E0,2.118968474E0
3.242405521E0,3.367945850E-1,-3.079615533E-1,1.936832666E0,1.989872279E0
3.244811667E0,3.270207345E-1,-2.908573449E-1,1.803664088E0,1.856002344E0
3.247217031E0,3.135817051E-1,-2.584815323E-1,1.676604271E0,1.725151608E0
3.249621510E0,2.989209592E-1,-1.992276311E-1,1.553209543E0,1.594209922E0
3.252026927E0,2.793732882E-1,-1.173717678E-1,1.434090972E0,1.465756624E0
3.254433021E0,2.573821545E-1,-1.902254671E-2,1.324135303E0,1.349052161E0
3.256838385E0,2.335584313E-1,8.971137553E-2,1.222120881E0,1.247468284E0
3.259242917E0,2.115673125E-1,1.996670365E-1,1.131102085E0,1.167912488E0
3.261648281E0,1.883544475E-1,3.022922873E-1,1.049246192E0,1.108050358E0
3.264054427E0,1.645307243E-1,3.902568221E-1,9.789967537E-1,1.066679610E0
3.266459792E0,1.413178593E-1,4.592845142E-1,9.203537107E-1,1.038250430E0
3.268864271E0,1.126072109E-1,5.118189454E-1,8.708736897E-1,1.016395592E0
3.271269687E0,8.145311475E-2,5.472490788E-1,8.348326683E-1,1.001529704E0
3.273675781E0,4.541209340E-2,5.722945333E-1,8.055111766E-1,9.891569879E-1
3.276081146E0,6.316753104E-3,5.924530625E-1,7.847417593E-1,9.832904766E-1
3.278485625E0,-3.522204608E-2,6.028377414E-1,7.737461925E-1,9.814973792E-1
3.280891042E0,-7.431738824E-2,6.150550842E-1,7.713027596E-1,9.893046942E-1
3.283297187E0,-1.097475439E-1,6.327701211E-1,7.768005133E-1,1.007899592E0
3.285702448E0,-1.415124983E-1,6.468200088E-1,7.908504009E-1,1.031429235E0
3.288107031E0,-1.690014154E-1,6.633133888E-1,8.140632510E-1,1.063600069E0
3.290512448E0,-1.891599596E-1,6.755306721E-1,8.476608396E-1,1.100296359E0
3.292918542E0,-2.062641680E-1,6.853045225E-1,8.922539353E-1,1.143811296E0
3.295323906E0,-2.135945410E-1,6.950783134E-1,9.435665607E-1,1.191249069E0
3.297728385E0,-2.123728096E-1,7.060738802E-1,9.991552830E-1,1.241754329E0
3.300133802E0,-2.025989741E-1,7.207346559E-1,1.057798266E0,1.295932854E0
3.302539948E0,-1.867164969E-1,7.353954315E-1,1.118273854E0,1.351371860E0
3.304945208E0,-1.647253633E-1,7.433366179E-1,1.179360390E0,1.403771599E0
3.307349792E0,-1.341821253E-1,7.439475060E-1,1.238614202E0,1.451078177E0
3.309755208E0,-9.997370839E-2,7.366171479E-1,1.294813752E0,1.493031218E0
3.312161302E0,-6.393268704E-2,7.207346559E-1,1.344293833E0,1.526653773E0
3.314566667E0,-2.422648296E-2,6.999652386E-1,1.387665272E0,1.554398007E0
3.316971146E0,1.731231809E-2,6.767523885E-1,1.427371502E0,1.579773058E0
3.319376562E0,5.885111541E-2,6.541504264E-1,1.457914710E0,1.599028310E0
3.321782708E0,1.022225097E-1,6.321592927E-1,1.481127501E0,1.613633628E0
3.324187969E0,1.468156427E-1,6.065029502E-1,1.495177388E0,1.620171622E0
3.326592552E0,1.871327162E-1,5.790140629E-1,1.501286030E0,1.619918418E0
3.328997917E0,2.274497896E-1,5.521360040E-1,1.499453425E0,1.613985176E0
3.331404062E0,2.641016841E-1,5.228145123E-1,1.487847090E0,1.598991456E0
3.333809427E0,2.952557802E-1,4.928821027E-1,1.465245008E0,1.573865203E0
3.336213906E0,3.203012347E-1,4.721126854E-1,1.432869196E0,1.542270210E0
3.338619323E0,3.398489058E-1,4.586736858E-1,1.394384742E0,1.506714186E0
3.341025469E0,3.538987935E-1,4.580627978E-1,1.346126437E0,1.465306203E0
3.343430729E0,3.593965769E-1,4.708909690E-1,1.294202924E0,1.423328989E0
3.345835312E0,3.612291515E-1,4.879951775E-1,1.238003373E0,1.378868429E0
3.348240677E0,3.569531143E-1,5.069320202E-1,1.179971218E0,1.332939486E0
3.350646823E0,3.459575474E-1,5.222036242E-1,1.118884802E0,1.282297333E0
3.353052187E0,3.288533390E-1,5.277013779E-1,1.053522229E0,1.223324303E0
3.355456667E0,3.062513471E-1,5.215927362E-1,9.863271117E-1,1.157017736E0
3.357862083E0,2.836493552E-1,5.057102442E-1,9.160776734E-1,1.084157789E0
3.360268229E0,2.561604381E-1,4.843299687E-1,8.433848023E-1,1.005729394E0
3.362673490E0,2.243954688E-1,4.574519098E-1,7.725244761E-1,9.254240338E-1
3.365078073E0,1.914087683E-1,4.311847389E-1,6.986098289E-1,8.429788187E-1
3.367483437E0,1.578112096E-1,4.079718888E-1,6.259169579E-1,7.636212923E-1
3.369889583E0,1.217701808E-1,3.908676803E-1,5.599435568E-1,6.936442224E-1
3.372294948E0,8.634003252E-2,3.810938299E-1,4.976353347E-1,6.327148131E-1
3.374699427E0,4.907727987E-2,3.786503673E-1,4.402140379E-1,5.827289929E-1
3.377104844E0,1.059280522E-2,3.878133595E-1,3.876796663E-1,5.484586885E-1
3.379510937E0,-2.422648296E-2,4.085827470E-1,3.394213617E-1,5.317270394E-1
3.381916302E0,-6.210009754E-2,4.293521643E-1,2.997151315E-1,5.272844234E-1
3.384320833E0,-1.011954397E-1,4.562301934E-1,2.648958564E-1,5.371743861E-1
3.386726198E0,-1.396799088E-1,4.831082523E-1,2.349634767E-1,5.550782789E-1
3.389132344E0,-1.781643927E-1,5.044885278E-1,2.099180222E-1,5.747319388E-1
3.391537604E0,-2.203140557E-1,5.209819078E-1,1.873160303E-1,5.958588143E-1
3.393942187E0,-2.569659352E-1,5.350317955E-1,1.671575010E-1,6.166296654E-1
3.396347604E0,-2.936178148E-1,5.405295491E-1,1.488315612E-1,6.328779094E-1
3.398753698E0,-3.272153735E-1,5.466381907E-1,1.305056214E-1,6.503190982E-1
3.401159062E0,-3.565368950E-1,5.490816832E-1,1.127905399E-1,6.643274480E-1
3.403563542E0,-3.840258121E-1,5.466381907E-1,9.507545829E-2,6.747803189E-1
3.405968958E0,-4.102929831E-1,5.386969447E-1,8.163643628E-2,6.820551575E-1
3.408375104E0,-4.316732585E-1,5.277013779E-1,6.880827993E-2,6.852336286E-1
3.410780365E0,-4.512209296E-1,5.112080574E-1,5.659098178E-2,6.842050457E-1
3.413184948E0,-4.664925337E-1,4.941038191E-1,4.620628059E-2,6.810938911E-1
3.415590365E0,-4.805424213E-1,4.733344018E-1,3.643244505E-2,6.754952241E-1
3.417996458E0,-4.890945256E-1,4.550084770E-1,3.032379970E-2,6.687044952E-1
3.420401823E0,-4.927597046E-1,4.372933805E-1,2.665860951E-2,6.593544635E-1
3.422806354E0,-4.964249134E-1,4.159131348E-1,2.543688193E-2,6.481268898E-1
3.425211719E0,-4.976466298E-1,3.927002549E-1,2.726947516E-2,6.345149980E-1
3.427617865E0,-4.945923090E-1,3.688765466E-1,3.215639293E-2,6.178393743E-1
3.430023125E0,-4.915379882E-1,3.474962711E-1,4.070850089E-2,6.033410597E-1
3.432427708E0,-4.842076004E-1,3.267268836E-1,5.353666097E-2,5.865778983E-1
3.434833125E0,-4.787098169E-1,3.059574664E-1,6.819741428E-2,5.722097058E-1
3.437239219E0,-4.671033919E-1,2.857989371E-1,8.591248840E-2,5.542991672E-1
3.439644583E0,-4.567187130E-1,2.644186616E-1,1.066818908E-1,5.384145589E-1
3.442049062E0,-4.463340044E-1,2.399840951E-1,1.274512857E-1,5.225420936E-1
3.444454479E0,-4.353384376E-1,2.143277824E-1,1.476098299E-1,5.071928779E-1
3.446860625E0,-4.243428707E-1,1.874497235E-1,1.659357697E-1,4.926854477E-1
3.449265885E0,-4.133473039E-1,1.611825526E-1,1.824291199E-1,4.797042763E-1
3.451670469E0,-4.029625952E-1,1.349153519E-1,1.977007389E-1,4.686860223E-1
3.454075833E0,-3.907453120E-1,1.080373153E-1,2.086963058E-1,4.559694160E-1
3.456481979E0,-3.791388869E-1,8.421359211E-2,2.154158056E-1,4.441195717E-1
3.458887344E0,-3.687541783E-1,5.855727196E-2,2.190809995E-1,4.329030867E-1
3.461291823E0,-3.571477532E-1,3.656614572E-2,2.190809995E-1,4.205806522E-1
3.463697240E0,-3.455413282E-1,1.701847091E-2,2.172484100E-1,4.085159844E-1
3.466103385E0,-3.369892240E-1,-1.307472587E-3,2.117506266E-1,3.979972040E-1
3.468508646E0,-3.278262317E-1,-2.146600559E-2,2.050311118E-1,3.872577752E-1
3.470913229E0,-3.192741275E-1,-4.101367667E-2,1.970898658E-1,3.774420556E-1
3.473318594E0,-3.125546277E-1,-5.872875452E-2,1.885377616E-1,3.697106293E-1
3.475724740E0,-3.052242398E-1,-7.949815691E-2,1.799856573E-1,3.631482209E-1
3.478130104E0,-3.046133816E-1,-1.027110144E-1,1.738770157E-1,3.654751446E-1
3.480534583E0,-3.046133816E-1,-1.259238720E-1,1.696009636E-1,3.706893857E-1
3.482940000E0,-3.064459860E-1,-1.473041475E-1,1.665466279E-1,3.786098698E-1
3.485346094E0,-3.101111650E-1,-1.662409455E-1,1.683792323E-1,3.900724965E-1
3.487751458E0,-3.149980903E-1,-1.796799600E-1,1.720444113E-1,4.013825661E-1
3.490155990E0,-3.217175901E-1,-2.004493773E-1,1.824291199E-1,4.206691627E-1
3.492561354E0,-3.272153735E-1,-2.163318396E-1,1.983115971E-1,4.395416420E-1
3.494967500E0,-3.339349031E-1,-2.236622274E-1,2.166375369E-1,4.565842024E-1
3.497372760E0,-3.430978656E-1,-2.377121150E-1,2.404612601E-1,4.817102995E-1
3.499777344E0,-3.534825742E-1,-2.560380697E-1,2.685610354E-1,5.124748317E-1
3.502182760E0,-3.620346785E-1,-2.749748528E-1,2.997151315E-1,5.445268020E-1
3.504588854E0,-3.711976409E-1,-2.902464867E-1,3.345344365E-1,5.778788807E-1
3.506994219E0,-3.821932077E-1,-3.079615533E-1,3.675211370E-1,6.131751402E-1
3.509398750E0,-3.962430954E-1,-3.287309706E-1,4.011186957E-1,6.526628914E-1
3.511804115E0,-4.139581621E-1,-3.482786417E-1,4.353271127E-1,6.943839480E-1
3.514210260E0,-4.316732585E-1,-3.690480292E-1,4.683138132E-1,7.361087404E-1
3.516615521E0,-4.506100416E-1,-3.873739839E-1,4.994678795E-1,7.762578023E-1
3.519020104E0,-4.707686007E-1,-4.044781923E-1,5.318437815E-1,8.173637448E-1
3.521425521E0,-4.927597046E-1,-4.179172218E-1,5.617761612E-1,8.561888729E-1
3.523831615E0,-5.141400099E-1,-4.295236468E-1,5.910976529E-1,8.934354751E-1
3.526236979E0,-5.349093676E-1,-4.392974973E-1,6.167539358E-1,9.270899309E-1
3.528641458E0,-5.569005013E-1,-4.484604597E-1,6.411885619E-1,9.604049792E-1
3.531046875E0,-5.770590305E-1,-4.564017057E-1,6.644014120E-1,9.913268270E-1
3.533453021E0,-5.966067314E-1,-4.606777430E-1,6.851708293E-1,1.018637639E0
3.535858281E0,-6.161543727E-1,-4.661755264E-1,7.028858662E-1,1.044516335E0
3.538262865E0,-6.344803572E-1,-4.667863846E-1,7.206009626E-1,1.067576976E0
3.540668281E0,-6.473084688E-1,-4.545691013E-1,7.346508503E-1,1.079515259E0
3.543074375E0,-6.534171700E-1,-4.350214303E-1,7.377051711E-1,1.077221687E0
3.545479740E0,-6.576932073E-1,-4.221932590E-1,7.322074175E-1,1.070950608E0
3.547884219E0,-6.619692445E-1,-4.203606844E-1,7.218226790E-1,1.065802217E0
3.550289635E0,-6.680778861E-1,-4.283019304E-1,7.047184706E-1,1.061319334E0
3.552695781E0,-6.747974157E-1,-4.392974973E-1,6.802839041E-1,1.054096786E0
3.555101042E0,-6.839603782E-1,-4.496821761E-1,6.515732408E-1,1.046213910E0
3.557505625E0,-6.949559450E-1,-4.600668848E-1,6.216408610E-1,1.039741633E0
3.559910990E0,-7.059515119E-1,-4.692298472E-1,5.904867649E-1,1.033062828E0
3.562317135E0,-7.175579071E-1,-4.741167724E-1,5.611652732E-1,1.026928687E0
3.564722500E0,-7.279426455E-1,-4.765602350E-1,5.361198187E-1,1.021975838E0
3.567126979E0,-7.346621752E-1,-4.771710932E-1,5.141286850E-1,1.015750495E0
3.569532396E0,-7.364947200E-1,-4.728950560E-1,4.945810139E-1,1.005318152E0
3.571938490E0,-7.371056080E-1,-4.649538100E-1,4.780876338E-1,9.940193702E-1
3.574343854E0,-7.340512872E-1,-4.515147805E-1,4.677029550E-1,9.805319696E-1
3.576748385E0,-7.254991531E-1,-4.337997139E-1,4.615942836E-1,9.631201875E-1
3.579153750E0,-7.114492655E-1,-4.105868340E-1,4.597617090E-1,9.413407643E-1
3.581559896E0,-6.912907362E-1,-3.843196630E-1,4.622051716E-1,9.160884815E-1
3.583965260E0,-6.662452817E-1,-3.617176712E-1,4.695355296E-1,8.917320576E-1
3.586369740E0,-6.350911856E-1,-3.372830749E-1,4.786984921E-1,8.638593247E-1
3.588775156E0,-6.014936566E-1,-3.152919412E-1,4.878614843E-1,8.361892459E-1
3.591181250E0,-5.623983145E-1,-2.920790911E-1,4.988570511E-1,8.065112628E-1
3.593586615E0,-5.239138007E-1,-2.700879574E-1,5.104634762E-1,7.797474821E-1
3.595991146E0,-4.799315631E-1,-2.505402863E-1,5.190156102E-1,7.499879626E-1
3.598396510E0,-4.353384376E-1,-2.303817272E-1,5.251242518E-1,7.199658154E-1
3.600802656E0,-3.889127076E-1,-2.120558023E-1,5.281785727E-1,6.893427029E-1
3.603207917E0,-3.449304700E-1,-1.955624521E-1,5.269568563E-1,6.594734492E-1
3.605612500E0,-2.985047400E-1,-1.821234226E-1,5.208482146E-1,6.273411222E-1
3.608017917E0,-2.520790398E-1,-1.723496020E-1,5.116852522E-1,5.958775251E-1
3.610424010E0,-2.074858993E-1,-1.625757515E-1,5.006896853E-1,5.658369327E-1
3.612829375E0,-1.665579528E-1,-1.515801847E-1,4.848071635E-1,5.345615865E-1
3.615233854E0,-1.299060732E-1,-1.411954910E-1,4.677029550E-1,5.055272581E-1
3.617639271E0,-9.997370839E-2,-1.338651180E-1,4.493770003E-1,4.794312262E-1
3.620045417E0,-7.431738824E-2,-1.277564764E-1,4.316619337E-1,4.562639767E-1
3.622450677E0,-5.415885150E-2,-1.240912825E-1,4.151685834E-1,4.366884246E-1
3.624855260E0,-3.888723627E-2,-1.240912825E-1,3.974534869E-1,4.181867260E-1
3.627260677E0,-3.033513017E-2,-1.265347302E-1,3.809601367E-1,4.025691044E-1
3.629666771E0,-2.605907805E-2,-1.259238720E-1,3.662993908E-1,3.882153279E-1
3.632072135E0,-2.422648296E-2,-1.265347302E-1,3.516386449E-1,3.744965915E-1
3.634476615E0,-2.605907805E-2,-1.301999241E-1,3.388104737E-1,3.639005810E-1
3.636882031E0,-3.033513017E-2,-1.308107972E-1,3.272040486E-1,3.536865480E-1
3.639288177E0,-4.071982950E-2,-1.289781928E-1,3.192628026E-1,3.467307541E-1
3.641693437E0,-5.171539634E-2,-1.277564764E-1,3.125433028E-1,3.415838339E-1
3.644098021E0,-6.698701531E-2,-1.283673346E-1,3.076563776E-1,3.400262923E-1
3.646503385E0,-8.531295508E-2,-1.332542598E-1,3.064346611E-1,3.448727296E-1
3.648909531E0,-1.073040888E-1,-1.399737597E-1,3.088781238E-1,3.556859798E-1
3.651314896E0,-1.305169463E-1,-1.503584683E-1,3.125433028E-1,3.705747676E-1
3.653719375E0,-1.555623859E-1,-1.668518186E-1,3.180410862E-1,3.913940697E-1
3.656124792E0,-1.793861091E-1,-1.876212060E-1,3.253714740E-1,4.162303319E-1
3.658530937E0,-2.013772428E-1,-2.059471607E-1,3.339235783E-1,4.409897766E-1
3.660936198E0,-2.258118391E-1,-2.267165482E-1,3.443082571E-1,4.700420788E-1
3.663340781E0,-2.441377789E-1,-2.493185401E-1,3.559146821E-1,4.984358038E-1
3.665746146E0,-2.612420022E-1,-2.755857408E-1,3.693537116E-1,5.297329974E-1
3.668152292E0,-2.759027481E-1,-3.000203371E-1,3.852362037E-1,5.608399609E-1
3.670557656E0,-2.850657105E-1,-3.250657916E-1,4.011186957E-1,5.897681208E-1
3.672962135E0,-2.887308896E-1,-3.507221043E-1,4.194446206E-1,6.183084269E-1
3.675367552E0,-2.899526358E-1,-3.769892752E-1,4.389922917E-1,6.472307755E-1
3.677773646E0,-2.881200314E-1,-4.014238715E-1,4.597617090E-1,6.749334087E-1
3.680179010E0,-2.850657105E-1,-4.228041470E-1,4.817528427E-1,7.015066696E-1
3.682583542E0,-2.814005315E-1,-4.399083555E-1,5.049657226E-1,7.264268727E-1
3.684988906E0,-2.771244645E-1,-4.551799595E-1,5.294002891E-1,7.511667128E-1
3.687395052E0,-2.697941065E-1,-4.643429220E-1,5.544457436E-1,7.718894297E-1
3.689800312E0,-2.612420022E-1,-4.673972726E-1,5.801020861E-1,7.894466571E-1
3.692204896E0,-2.526898980E-1,-4.643429220E-1,6.051475406E-1,8.035359853E-1
3.694610312E0,-2.447486371E-1,-4.588451684E-1,6.277495027E-1,8.151749640E-1
3.697016406E0,-2.349748015E-1,-4.533473849E-1,6.491298079E-1,8.258974006E-1
3.699421771E0,-2.245901078E-1,-4.429626763E-1,6.619579792E-1,8.275536329E-1
3.701826302E0,-2.129836828E-1,-4.331888258E-1,6.680666208E-1,8.242133327E-1
3.704231667E0,-2.038207054E-1,-4.234150052E-1,6.662340164E-1,8.152857850E-1
3.706637812E0,-1.928251386E-1,-4.142520428E-1,6.601253748E-1,8.028398342E-1
3.709043073E0,-1.830513030E-1,-4.038673341E-1,6.485189199E-1,7.856165685E-1
3.711447656E0,-1.769426614E-1,-3.928717673E-1,6.332473159E-1,7.659367428E-1
3.713853073E0,-1.702231467E-1,-3.855413795E-1,6.185865402E-1,7.485101086E-1
3.716259167E0,-1.641145051E-1,-3.782110214E-1,6.020932198E-1,7.297214488E-1
3.718664531E0,-1.586167216E-1,-3.708806336E-1,5.855998397E-1,7.110828932E-1
3.721069010E0,-1.525080651E-1,-3.598850667E-1,5.703282356E-1,6.914117930E-1
3.723474427E0,-1.463994235E-1,-3.501112461E-1,5.544457436E-1,6.718785295E-1
3.725880573E0,-1.384581774E-1,-3.415591419E-1,5.385632515E-1,6.525976480E-1
3.728285833E0,-1.311278045E-1,-3.354504704E-1,5.239025354E-1,6.357636242E-1
3.730690417E0,-1.213539764E-1,-3.293418288E-1,5.104634762E-1,6.194883278E-1
3.733095833E0,-1.121910065E-1,-3.214005828E-1,4.976353347E-1,6.029312423E-1
3.735501927E0,-1.030280367E-1,-3.159027994E-1,4.823637009E-1,5.857338089E-1
3.737907292E0,-9.264333546E-2,-3.091832995E-1,4.719789922E-1,5.717877836E-1
3.740311771E0,-8.225863427E-2,-3.055181205E-1,4.622051716E-1,5.601262586E-1
3.742717187E0,-7.309566438E-2,-3.024637997E-1,4.536530375E-1,5.501167192E-1
3.745123333E0,-6.759788096E-2,-2.981877327E-1,4.457118213E-1,5.405038622E-1
3.747528594E0,-6.332182884E-2,-2.987985909E-1,4.371597171E-1,5.332906057E-1
3.749933177E0,-5.782404542E-2,-2.969660163E-1,4.292184711E-1,5.251294421E-1
3.752338542E0,-5.476971716E-2,-2.969660163E-1,4.231098294E-1,5.198177224E-1
3.754744687E0,-5.232626200E-2,-2.975768745E-1,4.163902998E-1,5.144617728E-1
3.757150052E0,-5.049366504E-2,-3.006311953E-1,4.108925164E-1,5.116262169E-1
3.759554531E0,-4.743934423E-2,-2.981877327E-1,4.053947330E-1,5.054812606E-1
3.761959948E0,-4.438501596E-2,-2.914682031E-1,3.992860913E-1,4.963397282E-1
3.764366094E0,-4.438501596E-2,-2.865813076E-1,3.962317705E-1,4.910178118E-1
3.766771354E0,-4.194156080E-2,-2.774183154E-1,3.931774497E-1,4.830202099E-1
3.769175937E0,-3.705464303E-2,-2.682553530E-1,3.889013827E-1,4.738968943E-1
3.771581302E0,-3.400031850E-2,-2.609249651E-1,3.870688081E-1,4.680385895E-1
3.773987448E0,-3.216772527E-2,-2.517620027E-1,3.840144873E-1,4.603107591E-1
3.776392812E0,-3.094599582E-2,-2.432098985E-1,3.809601367E-1,4.530334812E-1
3.778797292E0,-3.094599582E-2,-2.340469360E-1,3.779058158E-1,4.455877339E-1
3.781202708E0,-2.972426452E-2,-2.267165482E-1,3.742406368E-1,4.385658210E-1
3.783608802E0,-2.789167129E-2,-2.175535858E-1,3.681319952E-1,4.285191640E-1
3.786014167E0,-2.728080563E-2,-2.090014815E-1,3.620233536E-1,4.189114109E-1
3.788418698E0,-2.972426452E-2,-2.010602355E-1,3.528603613E-1,4.072090186E-1
3.790824062E0,-2.972426452E-2,-1.900646687E-1,3.436973989E-1,3.938730915E-1
3.793230208E0,-3.216772527E-2,-1.778473854E-1,3.345344365E-1,3.802338021E-1
3.795635573E0,-3.400031850E-2,-1.637974977E-1,3.210954070E-1,3.620606335E-1
3.798040052E0,-3.338945657E-2,-1.473041475E-1,3.070455194E-1,3.421846265E-1
3.800445469E0,-3.277859092E-2,-1.320325136E-1,2.917738855E-1,3.219301491E-1
3.802851562E0,-3.338945657E-2,-1.143174469E-1,2.765022814E-1,3.010595392E-1
3.805256927E0,-3.277859092E-2,-9.721323103E-2,2.636741102E-1,2.829291160E-1
3.807661458E0,-3.583291173E-2,-7.827642560E-2,2.502351105E-1,2.646295654E-1
3.810066823E0,-3.888723627E-2,-5.933962017E-2,2.361852080E-1,2.466107462E-1
3.812472969E0,-4.377415776E-2,-4.284626991E-2,2.227461934E-1,2.310148186E-1
3.814878229E0,-5.171539634E-2,-3.429416567E-2,2.117506266E-1,2.206556137E-1
3.817282812E0,-5.965663493E-2,-2.635292336E-2,1.995333284E-1,2.099212705E-1
3.819688229E0,-6.515441835E-2,-2.024427801E-2,1.873160303E-1,1.993545189E-1
3.822094323E0,-6.943047047E-2,-1.474649459E-2,1.726552844E-1,1.866759132E-1
3.824499687E0,-7.187393308E-2,-1.291390136E-2,1.579945236E-1,1.740543036E-1
3.826904167E0,-7.676085085E-2,-1.169217005E-2,1.457772255E-1,1.651663844E-1
3.829309583E0,-7.798258215E-2,-5.583524704E-3,1.372251213E-1,1.579341406E-1
3.831715729E0,-7.798258215E-2,2.357717603E-3,1.317273378E-1,1.530977906E-1
3.834120990E0,-7.737171650E-2,1.029895991E-2,1.292838901E-1,1.510191224E-1
3.836525573E0,-7.492825389E-2,1.946192980E-2,1.305056214E-1,1.517390100E-1
3.838930990E0,-7.126306742E-2,2.557057887E-2,1.353925318E-1,1.551238761E-1
3.841337083E0,-6.759788096E-2,3.106836230E-2,1.445555091E-1,1.625761725E-1
3.843742448E0,-6.271096319E-2,3.167922050E-2,1.573836654E-1,1.723538687E-1
3.846146927E0,-5.538058281E-2,2.557057887E-2,1.744878739E-1,1.848428565E-1
3.848552344E0,-4.682847857E-2,1.701847091E-2,1.928138137E-1,1.991474366E-1
3.850958490E0,-3.888723627E-2,6.633769721E-3,2.141940743E-1,2.177965232E-1
3.853363750E0,-2.972426452E-2,-4.972659051E-3,2.349634767E-1,2.368883589E-1
3.855768333E0,-1.995043084E-2,-2.268773690E-2,2.575654685E-1,2.593313010E-1
3.858173698E0,-1.445264742E-2,-4.467886686E-2,2.838326693E-1,2.876909180E-1
3.860579844E0,-8.344000205E-3,-7.033517957E-2,3.119324446E-1,3.198726462E-1
3.862985208E0,-3.457082435E-3,-9.965668619E-2,3.388104737E-1,3.531797610E-1
3.865389687E0,2.081058919E-4,-1.271456033E-1,3.669102490E-1,3.883158232E-1
3.867795104E0,2.081058919E-4,-1.570779681E-1,3.968426287E-1,4.267992542E-1
3.870201250E0,-1.013623551E-3,-1.876212060E-1,4.279967248E-1,4.673156758E-1
3.872606510E0,-4.067947157E-3,-2.151101232E-1,4.573182464E-1,5.053997346E-1
3.875011094E0,-8.954864927E-3,-2.425990403E-1,4.866397381E-1,5.438315168E-1
3.877416458E0,-1.628524065E-2,-2.664227486E-1,5.135177970E-1,5.787459009E-1
3.879822604E0,-2.728080563E-2,-2.810835242E-1,5.373415351E-1,6.070322193E-1
3.882227969E0,-4.133069515E-2,-2.963551283E-1,5.581109524E-1,6.332633130E-1
3.884632448E0,-5.354799330E-2,-3.097941577E-1,5.758260489E-1,6.560605508E-1
3.887037865E0,-6.759788096E-2,-3.159027994E-1,5.898759365E-1,6.725456658E-1
3.889443958E0,-8.531295508E-2,-3.207897246E-1,5.978171825E-1,6.837907073E-1
3.891849323E0,-1.030280367E-1,-3.262875080E-1,6.014823318E-1,6.919966110E-1
3.894253854E0,-1.219648421E-1,-3.275092542E-1,5.996497273E-1,6.940587366E-1
3.896659219E0,-1.421233714E-1,-3.281201124E-1,5.947628021E-1,6.939774144E-1
3.899065365E0,-1.592275798E-1,-3.244549036E-1,5.868216157E-1,6.891908410E-1
3.901470625E0,-1.744991988E-1,-3.171245456E-1,5.746042728E-1,6.791082522E-1
3.903875208E0,-1.879382282E-1,-3.091832995E-1,5.599435568E-1,6.666722412E-1
3.906280625E0,-2.007663846E-1,-2.945225537E-1,5.416175723E-1,6.483828117E-1
3.908686719E0,-2.087076306E-1,-2.768074572E-1,5.196264982E-1,6.246542573E-1
3.911092083E0,-2.166488618E-1,-2.584815323E-1,4.970244467E-1,6.006519229E-1
3.913496615E0,-2.209249139E-1,-2.364903986E-1,4.725898504E-1,5.727797945E-1
3.915901979E0,-2.227575183E-1,-2.157209814E-1,4.487661421E-1,5.454791509E-1
3.918308125E0,-2.245901078E-1,-1.943407357E-1,4.218880832E-1,5.159443699E-1
